pos,corr_resp,trials_1.thisRepN,trials_1.thisTrialN,trials_1.thisN,trials_1.thisIndex,trials_2.thisRepN,trials_2.thisTrialN,trials_2.thisN,trials_2.thisIndex,fixation.started,Line1.started,Line2.started,Line3.started,Line4.started,fixation.stopped,Probe.started,key_resp_2.started,key_resp_2.keys,key_resp_2.corr,key_resp_2.rt,key_resp_2.duration,Fixation.started,line1.started,line2.started,line3.started,line4.started,Fixation.stopped,probe.started,key_resp.started,key_resp.keys,key_resp.corr,key_resp.rt,key_resp.duration,participant,session,date,expName,psychopyVersion,frameRate,
-50,x,0,0,0,0,,,,,14.587926399894059,15.581359799951315,15.581359799951315,15.581359799951315,15.581359799951315,15.596525099826977,16.579696799861267,16.579696799861267,x,1,1.2276739999651909,None,,,,,,,,,,,,,604757,001,2023-10-09_14h53.34.698,Sequential Learning,2023.1.3,59.92139517100053,
150,v,0,1,1,1,,,,,17.831503599882126,18.829933899920434,18.829933899920434,18.829933899920434,18.829933899920434,18.829933899920434,19.829596899915487,19.829596899915487,v,1,0.5199577000457793,None,,,,,,,,,,,,,604757,001,2023-10-09_14h53.34.698,Sequential Learning,2023.1.3,59.92139517100053,
50,c,0,2,2,2,,,,,20.381559599889442,21.379544199910015,21.379544199910015,21.379544199910015,21.379544199910015,21.379544199910015,22.379633999895304,22.379633999895304,c,1,0.533938400214538,None,,,,,,,,,,,,,604757,001,2023-10-09_14h53.34.698,Sequential Learning,2023.1.3,59.92139517100053,
-150,z,0,3,3,3,,,,,22.947788199875504,23.930901099927723,23.930901099927723,23.930901099927723,23.930901099927723,23.946140199899673,24.94602209981531,24.94602209981531,z,1,0.6958458002191037,None,,,,,,,,,,,,,604757,001,2023-10-09_14h53.34.698,Sequential Learning,2023.1.3,59.92139517100053,
-50,x,1,0,4,0,,,,,25.664320999989286,26.64764599991031,26.64764599991031,26.64764599991031,26.64764599991031,26.662731799995527,27.662645800039172,27.662645800039172,x,1,0.6853579001035541,None,,,,,,,,,,,,,604757,001,2023-10-09_14h53.34.698,Sequential Learning,2023.1.3,59.92139517100053,
150,v,1,1,5,1,,,,,28.380857199896127,29.379251400008798,29.379251400008798,29.379251400008798,29.379251400008798,29.379251400008798,30.37914519989863,30.37914519989863,v,1,0.4866241002455354,None,,,,,,,,,,,,,604757,001,2023-10-09_14h53.34.698,Sequential Learning,2023.1.3,59.92139517100053,
50,c,1,2,6,2,,,,,30.897412199992687,31.881212699925527,31.881212699925527,31.881212699925527,31.881212699925527,31.89592449995689,32.895562999881804,32.895562999881804,c,1,0.6182498002890497,None,,,,,,,,,,,,,604757,001,2023-10-09_14h53.34.698,Sequential Learning,2023.1.3,59.92139517100053,
-150,z,1,3,7,3,,,,,33.547259599901736,34.545903199817985,34.545903199817985,34.545903199817985,34.545903199817985,34.545903199817985,35.54555649985559,35.54555649985559,z,1,0.43780039995908737,None,,,,,,,,,,,,,604757,001,2023-10-09_14h53.34.698,Sequential Learning,2023.1.3,59.92139517100053,
-50,x,2,0,8,0,,,,,36.01367160002701,36.99712789990008,36.99712789990008,36.99712789990008,36.99712789990008,37.012195099843666,38.01216549985111,38.01216549985111,x,1,0.718119699973613,None,,,,,,,,,,,,,604757,001,2023-10-09_14h53.34.698,Sequential Learning,2023.1.3,59.92139517100053,
150,v,2,1,9,1,,,,,38.763680699979886,39.746772799873725,39.746772799873725,39.746772799873725,39.746772799873725,39.76190169993788,40.76198640000075,40.76198640000075,v,1,0.3858380001038313,None,,,,,,,,,,,,,604757,001,2023-10-09_14h53.34.698,Sequential Learning,2023.1.3,59.92139517100053,
50,c,2,2,10,2,,,,,41.18024909985252,42.163658999837935,42.163658999837935,42.163658999837935,42.163658999837935,42.17867329996079,43.178443799959496,43.178443799959496,c,1,0.32869540015235543,None,,,,,,,,,,,,,604757,001,2023-10-09_14h53.34.698,Sequential Learning,2023.1.3,59.92139517100053,
-150,z,2,3,11,3,,,,,43.53020819998346,44.513316799886525,44.513316799886525,44.513316799886525,44.513316799886525,44.528475699946284,45.528493999969214,45.528493999969214,z,1,0.3163750001695007,None,,,,,,,,,,,,,604757,001,2023-10-09_14h53.34.698,Sequential Learning,2023.1.3,59.92139517100053,
-50,x,3,0,12,0,,,,,45.863276900025085,46.84765679994598,46.84765679994598,46.84765679994598,46.84765679994598,46.861625799909234,47.861653900006786,47.861653900006786,x,1,0.25590540026314557,None,,,,,,,,,,,,,604757,001,2023-10-09_14h53.34.698,Sequential Learning,2023.1.3,59.92139517100053,
150,v,3,1,13,1,,,,,48.14665529993363,49.130009499844164,49.130009499844164,49.130009499844164,49.130009499844164,49.14488159981556,50.14491259981878,50.14491259981878,v,1,0.2569934001658112,None,,,,,,,,,,,,,604757,001,2023-10-09_14h53.34.698,Sequential Learning,2023.1.3,59.92139517100053,
50,c,3,2,14,2,,,,,50.4299117999617,51.428103799931705,51.428103799931705,51.428103799931705,51.428103799931705,51.428103799931705,52.42799280001782,52.42799280001782,c,1,0.2126468000933528,None,,,,,,,,,,,,,604757,001,2023-10-09_14h53.34.698,Sequential Learning,2023.1.3,59.92139517100053,
-150,z,3,3,15,3,,,,,52.66270520002581,53.64624989987351,53.64624989987351,53.64624989987351,53.64624989987351,53.66132709989324,54.66130529996008,54.66130529996008,z,1,0.14917350001633167,None,,,,,,,,,,,,,604757,001,2023-10-09_14h53.34.698,Sequential Learning,2023.1.3,59.92139517100053,
-50,x,4,0,16,0,,,,,54.82952719996683,55.812804099870846,55.812804099870846,55.812804099870846,55.812804099870846,55.8278091000393,56.828042699955404,56.828042699955404,x,1,0.2402445999905467,None,,,,,,,,,,,,,604757,001,2023-10-09_14h53.34.698,Sequential Learning,2023.1.3,59.92139517100053,
150,v,4,1,17,1,,,,,57.0959431999363,58.07979119988158,58.07979119988158,58.07979119988158,58.07979119988158,58.09459809982218,59.094516000011936,59.094516000011936,v,1,0.2306743001099676,None,,,,,,,,,,,,,604757,001,2023-10-09_14h53.34.698,Sequential Learning,2023.1.3,59.92139517100053,
50,c,4,2,18,2,,,,,59.346032599918544,60.32926869997755,60.32926869997755,60.32926869997755,60.32926869997755,60.34456689981744,61.344681199872866,61.344681199872866,c,1,0.168529300019145,None,,,,,,,,,,,,,604757,001,2023-10-09_14h53.34.698,Sequential Learning,2023.1.3,59.92139517100053,
-150,z,4,3,19,3,,,,,61.546034399885684,62.529420299921185,62.529420299921185,62.529420299921185,62.529420299921185,62.54446919984184,63.54425989999436,63.54425989999436,z,1,0.2676963002886623,None,,,,,,,,,,,,,604757,001,2023-10-09_14h53.34.698,Sequential Learning,2023.1.3,59.92139517100053,
-50,x,5,0,20,0,,,,,63.84588429983705,64.82928099995479,64.82928099995479,64.82928099995479,64.82928099995479,64.84421089990065,65.8441118998453,65.8441118998453,x,1,0.19261160003952682,None,,,,,,,,,,,,,604757,001,2023-10-09_14h53.34.698,Sequential Learning,2023.1.3,59.92139517100053,
150,v,5,1,21,1,,,,,66.06236199988052,67.04583449987695,67.04583449987695,67.04583449987695,67.04583449987695,67.06109309988096,68.06077439989895,68.06077439989895,v,1,0.2634672001004219,None,,,,,,,,,,,,,604757,001,2023-10-09_14h53.34.698,Sequential Learning,2023.1.3,59.92139517100053,
50,c,5,2,22,2,,,,,68.34556129993871,69.32890389999375,69.32890389999375,69.32890389999375,69.32890389999375,69.3440981998574,70.34395969985053,70.34395969985053,c,1,0.2378817000426352,None,,,,,,,,,,,,,604757,001,2023-10-09_14h53.34.698,Sequential Learning,2023.1.3,59.92139517100053,
-150,z,5,3,23,3,,,,,70.61220450000837,71.59530019992962,71.59530019992962,71.59530019992962,71.59530019992962,71.61058719991706,72.61036139982753,72.61036139982753,z,1,0.2657629002351314,None,,,,,,,,,,,,,604757,001,2023-10-09_14h53.34.698,Sequential Learning,2023.1.3,59.92139517100053,
-50,x,6,0,24,0,,,,,72.89543129992671,73.87922560004517,73.87922560004517,73.87922560004517,73.87922560004517,73.8936675998848,74.89378679986112,74.89378679986112,x,1,0.26994780031964183,None,,,,,,,,,,,,,604757,001,2023-10-09_14h53.34.698,Sequential Learning,2023.1.3,59.92139517100053,
150,v,6,1,25,1,,,,,75.19502809992991,76.1787192998454,76.1787192998454,76.1787192998454,76.1787192998454,76.19366939994507,77.19360259990208,77.19360259990208,v,1,0.26320520020090044,None,,,,,,,,,,,,,604757,001,2023-10-09_14h53.34.698,Sequential Learning,2023.1.3,59.92139517100053,
50,c,6,2,26,2,,,,,77.47858999995515,78.46185890003107,78.46185890003107,78.46185890003107,78.46185890003107,78.47691860003397,79.47687429981306,79.47687429981306,c,1,0.25884320004843175,None,,,,,,,,,,,,,604757,001,2023-10-09_14h53.34.698,Sequential Learning,2023.1.3,59.92139517100053,
-150,z,6,3,27,3,,,,,79.76175750000402,80.74496509996243,80.74496509996243,80.74496509996243,80.74496509996243,80.76022169995122,81.76014549983665,81.76014549983665,z,1,0.2936004002112895,None,,,,,,,,,,,,,604757,001,2023-10-09_14h53.34.698,Sequential Learning,2023.1.3,59.92139517100053,
-50,x,7,0,28,0,,,,,82.07832149998285,83.06234279996715,83.06234279996715,83.06234279996715,83.06234279996715,83.0767800998874,84.07657049992122,84.07657049992122,x,1,0.29527280014008284,None,,,,,,,,,,,,,604757,001,2023-10-09_14h53.34.698,Sequential Learning,2023.1.3,59.92139517100053,
150,v,7,1,29,1,,,,,84.39493740000762,85.37821240001358,85.37821240001358,85.37821240001358,85.37821240001358,85.39345779991709,86.39321989985183,86.39321989985183,v,1,0.264919999986887,None,,,,,,,,,,,,,604757,001,2023-10-09_14h53.34.698,Sequential Learning,2023.1.3,59.92139517100053,
50,c,7,2,30,2,,,,,86.6781037999317,87.66150559997186,87.66150559997186,87.66150559997186,87.66150559997186,87.67659729998559,88.67658369988203,88.67658369988203,c,1,0.15856370003893971,None,,,,,,,,,,,,,604757,001,2023-10-09_14h53.34.698,Sequential Learning,2023.1.3,59.92139517100053,
-150,z,7,3,31,3,,,,,88.86137379985303,89.84462979994714,89.84462979994714,89.84462979994714,89.84462979994714,89.85969750001095,90.85956509993412,90.85956509993412,z,1,0.23400440020486712,None,,,,,,,,,,,,,604757,001,2023-10-09_14h53.34.698,Sequential Learning,2023.1.3,59.92139517100053,
-50,x,8,0,32,0,,,,,91.11109659983777,92.1095614999067,92.1095614999067,92.1095614999067,92.1095614999067,92.1095614999067,93.10945259989239,93.10945259989239,x,1,0.46347389998845756,None,,,,,,,,,,,,,604757,001,2023-10-09_14h53.34.698,Sequential Learning,2023.1.3,59.92139517100053,
150,v,8,1,33,1,,,,,93.59447499993257,94.57816649996676,94.57816649996676,94.57816649996676,94.57816649996676,94.59313159994781,95.59273809986189,95.59273809986189,v,1,0.23591860011219978,None,,,,,,,,,,,,,604757,001,2023-10-09_14h53.34.698,Sequential Learning,2023.1.3,59.92139517100053,
50,c,8,2,34,2,,,,,95.86073309998028,96.84420139994472,96.84420139994472,96.84420139994472,96.84420139994472,96.85951570002362,97.85929999989457,97.85929999989457,c,1,0.059186500031501055,None,,,,,,,,,,,,,604757,001,2023-10-09_14h53.34.698,Sequential Learning,2023.1.3,59.92139517100053,
-150,z,8,3,35,3,,,,,97.94432609993964,98.9275599999819,98.9275599999819,98.9275599999819,98.9275599999819,98.94269229983911,99.94246990000829,99.94246990000829,z,1,0.282846299931407,None,,,,,,,,,,,,,604757,001,2023-10-09_14h53.34.698,Sequential Learning,2023.1.3,59.92139517100053,
-50,x,9,0,36,0,,,,,100.2441089998465,101.24258859991096,101.24258859991096,101.24258859991096,101.24258859991096,101.24258859991096,102.24265039991587,102.24265039991587,x,1,0.1770387999713421,None,,,,,,,,,,,,,604757,001,2023-10-09_14h53.34.698,Sequential Learning,2023.1.3,59.92139517100053,
150,v,9,1,37,1,,,,,102.44410869991407,103.42727579991333,103.42727579991333,103.42727579991333,103.42727579991333,103.4425158998929,104.44242769991979,104.44242769991979,v,1,0.2358497001696378,None,,,,,,,,,,,,,604757,001,2023-10-09_14h53.34.698,Sequential Learning,2023.1.3,59.92139517100053,
50,c,9,2,38,2,,,,,104.7105464998167,105.69387289998122,105.69387289998122,105.69387289998122,105.69387289998122,105.70882999990135,106.7091951998882,106.7091951998882,c,1,0.2265226999297738,None,,,,,,,,,,,,,604757,001,2023-10-09_14h53.34.698,Sequential Learning,2023.1.3,59.92139517100053,
-150,z,9,3,39,3,,,,,106.9604529000353,107.94425409985706,107.94425409985706,107.94425409985706,107.94425409985706,107.95896700001322,108.95875079999678,108.95875079999678,z,1,0.2876142000313848,None,,,,,,,,,,,,,604757,001,2023-10-09_14h53.34.698,Sequential Learning,2023.1.3,59.92139517100053,
-50,x,10,0,40,0,,,,,109.27694129990414,110.26015609991737,110.26015609991737,110.26015609991737,110.26015609991737,110.27552070003003,111.27540229982696,111.27540229982696,x,1,0.2889555001165718,None,,,,,,,,,,,,,604757,001,2023-10-09_14h53.34.698,Sequential Learning,2023.1.3,59.92139517100053,
150,v,10,1,41,1,,,,,111.59352179989219,112.57684989995323,112.57684989995323,112.57684989995323,112.57684989995323,112.59195939986967,113.59187569981441,113.59187569981441,v,1,0.3054133001714945,None,,,,,,,,,,,,,604757,001,2023-10-09_14h53.34.698,Sequential Learning,2023.1.3,59.92139517100053,
50,c,10,2,42,2,,,,,113.92691999999806,114.92517439997755,114.92517439997755,114.92517439997755,114.92517439997755,114.92517439997755,115.92497169994749,115.92497169994749,c,1,0.22677550022490323,None,,,,,,,,,,,,,604757,001,2023-10-09_14h53.34.698,Sequential Learning,2023.1.3,59.92139517100053,
-150,z,10,3,43,3,,,,,116.17667760001495,117.15984670002945,117.15984670002945,117.15984670002945,117.15984670002945,117.1751651999075,118.17494079982862,118.17494079982862,z,1,0.29936800012364984,None,,,,,,,,,,,,,604757,001,2023-10-09_14h53.34.698,Sequential Learning,2023.1.3,59.92139517100053,
-50,x,11,0,44,0,,,,,118.49346289993264,119.49176019988954,119.49176019988954,119.49176019988954,119.49176019988954,119.49176019988954,120.49158309982158,120.49158309982158,x,1,0.23105470021255314,None,,,,,,,,,,,,,604757,001,2023-10-09_14h53.34.698,Sequential Learning,2023.1.3,59.92139517100053,
150,v,11,1,45,1,,,,,120.74325979989953,121.72637119982392,121.72637119982392,121.72637119982392,121.72637119982392,121.74156609992497,122.7416140998248,122.7416140998248,v,1,0.22880770009942353,None,,,,,,,,,,,,,604757,001,2023-10-09_14h53.34.698,Sequential Learning,2023.1.3,59.92139517100053,
50,c,11,2,46,2,,,,,122.99324219999835,123.99182199989446,123.99182199989446,123.99182199989446,123.99182199989446,123.99182199989446,124.99148939992301,124.99148939992301,c,1,0.10209439997561276,None,,,,,,,,,,,,,604757,001,2023-10-09_14h53.34.698,Sequential Learning,2023.1.3,59.92139517100053,
-150,z,11,3,47,3,,,,,125.12641609995626,126.10968580003828,126.10968580003828,126.10968580003828,126.10968580003828,126.12473000003956,127.12477110000327,127.12477110000327,z,1,0.2427826002240181,None,,,,,,,,,,,,,604757,001,2023-10-09_14h53.34.698,Sequential Learning,2023.1.3,59.92139517100053,
-50,x,12,0,48,0,,,,,127.39265979989432,128.37634059996344,128.37634059996344,128.37634059996344,128.37634059996344,128.39137599989772,129.39111869991757,129.39111869991757,x,1,0.2648694000672549,None,,,,,,,,,,,,,604757,001,2023-10-09_14h53.34.698,Sequential Learning,2023.1.3,59.92139517100053,
150,v,12,1,49,1,,,,,129.67601189995185,130.65932710003108,130.65932710003108,130.65932710003108,130.65932710003108,130.67448069993407,131.67446270002984,131.67446270002984,v,1,0.21470430004410446,None,,,,,,,,,,,,,604757,001,2023-10-09_14h53.34.698,Sequential Learning,2023.1.3,59.92139517100053,
50,c,12,2,50,2,,,,,131.9091737999115,132.89272059989162,132.89272059989162,132.89272059989162,132.89272059989162,132.90763299982063,133.90765820001252,133.90765820001252,c,1,0.23410310014151037,None,,,,,,,,,,,,,604757,001,2023-10-09_14h53.34.698,Sequential Learning,2023.1.3,59.92139517100053,
-150,z,12,3,51,3,,,,,134.19166719983332,135.19082819996402,135.19082819996402,135.19082819996402,135.19082819996402,135.19082819996402,136.19076989986934,136.19076989986934,z,1,0.252858400112018,None,,,,,,,,,,,,,604757,001,2023-10-09_14h53.34.698,Sequential Learning,2023.1.3,59.92139517100053,
-50,x,13,0,52,0,,,,,136.4756713998504,137.45928219985217,137.45928219985217,137.45928219985217,137.45928219985217,137.47425039997324,138.4740891000256,138.4740891000256,x,1,0.2799245002679527,None,,,,,,,,,,,,,604757,001,2023-10-09_14h53.34.698,Sequential Learning,2023.1.3,59.92139517100053,
150,v,13,1,53,1,,,,,138.77559360000305,139.75874889991246,139.75874889991246,139.75874889991246,139.75874889991246,139.7740235000383,140.77375759999268,140.77375759999268,v,1,0.3221478001214564,None,,,,,,,,,,,,,604757,001,2023-10-09_14h53.34.698,Sequential Learning,2023.1.3,59.92139517100053,
50,c,13,2,54,2,,,,,141.12552949995734,142.10875749983825,142.10875749983825,142.10875749983825,142.10875749983825,142.12378149991855,143.12387779983692,143.12387779983692,c,1,0.05524480016902089,None,,,,,,,,,,,,,604757,001,2023-10-09_14h53.34.698,Sequential Learning,2023.1.3,59.92139517100053,
-150,z,13,3,55,3,,,,,143.20884039998055,144.2071042000316,144.2071042000316,144.2071042000316,144.2071042000316,144.2071042000316,145.206935999915,145.206935999915,z,1,0.2617665999568999,None,,,,,,,,,,,,,604757,001,2023-10-09_14h53.34.698,Sequential Learning,2023.1.3,59.92139517100053,
-50,x,14,0,56,0,,,,,145.4919732999988,146.4755062998738,146.4755062998738,146.4755062998738,146.4755062998738,146.49060210003518,147.4904273999855,147.4904273999855,x,1,0.2456551999785006,None,,,,,,,,,,,,,604757,001,2023-10-09_14h53.34.698,Sequential Learning,2023.1.3,59.92139517100053,
150,v,14,1,57,1,,,,,147.75868169986643,148.7571166998241,148.7571166998241,148.7571166998241,148.7571166998241,148.7571166998241,149.75685809995048,149.75685809995048,v,1,0.10208400012925267,None,,,,,,,,,,,,,604757,001,2023-10-09_14h53.34.698,Sequential Learning,2023.1.3,59.92139517100053,
50,c,14,2,58,2,,,,,149.8918432998471,150.89040619996376,150.89040619996376,150.89040619996376,150.89040619996376,150.89040619996376,151.89020029990934,151.89020029990934,c,1,0.16688999999314547,None,,,,,,,,,,,,,604757,001,2023-10-09_14h53.34.698,Sequential Learning,2023.1.3,59.92139517100053,
-150,z,14,3,59,3,,,,,152.07520650001243,153.07337689981796,153.07337689981796,153.07337689981796,153.07337689981796,153.07337689981796,154.0734577998519,154.0734577998519,z,1,0.2819425002671778,None,,,,,,,,,,,,,604757,001,2023-10-09_14h53.34.698,Sequential Learning,2023.1.3,59.92139517100053,
-50,x,15,0,60,0,,,,,154.37474579992704,155.35880469996482,155.35880469996482,155.35880469996482,155.35880469996482,155.373235499952,156.37332709995098,156.37332709995098,x,1,0.2700730001088232,None,,,,,,,,,,,,,604757,001,2023-10-09_14h53.34.698,Sequential Learning,2023.1.3,59.92139517100053,
150,v,15,1,61,1,,,,,156.67471459996887,157.6613636999391,157.6613636999391,157.6613636999391,157.6613636999391,157.67317269998603,158.6732767999638,158.6732767999638,v,1,0.2888162999879569,None,,,,,,,,,,,,,604757,001,2023-10-09_14h53.34.698,Sequential Learning,2023.1.3,59.92139517100053,
50,c,15,2,62,2,,,,,158.99146339995787,159.98973329993896,159.98973329993896,159.98973329993896,159.98973329993896,159.98973329993896,160.9895460999105,160.9895460999105,c,1,0.26157300011254847,None,,,,,,,,,,,,,604757,001,2023-10-09_14h53.34.698,Sequential Learning,2023.1.3,59.92139517100053,
-150,z,15,3,63,3,,,,,161.2745993998833,162.25818279990926,162.25818279990926,162.25818279990926,162.25818279990926,162.27287680003792,163.27303139981814,163.27303139981814,z,1,0.23118330002762377,None,,,,,,,,,,,,,604757,001,2023-10-09_14h53.34.698,Sequential Learning,2023.1.3,59.92139517100053,
-50,x,16,0,64,0,,,,,163.5245196998585,164.50760589982383,164.50760589982383,164.50760589982383,164.50760589982383,164.52283899998292,165.52305069984868,165.52305069984868,x,1,0.030056199990212917,None,,,,,,,,,,,,,604757,001,2023-10-09_14h53.34.698,Sequential Learning,2023.1.3,59.92139517100053,
150,v,16,1,65,1,,,,,165.5745182998944,166.55787099990994,166.55787099990994,166.55787099990994,166.55787099990994,166.57287609996274,167.57276459992863,167.57276459992863,v,1,0.3142229001969099,None,,,,,,,,,,,,,604757,001,2023-10-09_14h53.34.698,Sequential Learning,2023.1.3,59.92139517100053,
50,c,16,2,66,2,,,,,167.9076004999224,168.8910866000224,168.8910866000224,168.8910866000224,168.8910866000224,168.90587509982288,169.9059494000394,169.9059494000394,c,1,0.26686220010742545,None,,,,,,,,,,,,,604757,001,2023-10-09_14h53.34.698,Sequential Learning,2023.1.3,59.92139517100053,
-150,z,16,3,67,3,,,,,170.1908809999004,171.17409570002928,171.17409570002928,171.17409570002928,171.17409570002928,171.18921420001425,172.1891027998645,172.1891027998645,z,1,0.2716316001024097,None,,,,,,,,,,,,,604757,001,2023-10-09_14h53.34.698,Sequential Learning,2023.1.3,59.92139517100053,
-50,x,17,0,68,0,,,,,172.4906134000048,173.47423939988948,173.47423939988948,173.47423939988948,173.47423939988948,173.48905829992145,174.4890337998513,174.4890337998513,x,1,0.34648250020109117,None,,,,,,,,,,,,,604757,001,2023-10-09_14h53.34.698,Sequential Learning,2023.1.3,59.92139517100053,
150,v,17,1,69,1,,,,,174.85734659992158,175.84068170003593,175.84068170003593,175.84068170003593,175.84068170003593,175.85557929985225,176.8555633998476,176.8555633998476,v,1,0.2668578000739217,None,,,,,,,,,,,,,604757,001,2023-10-09_14h53.34.698,Sequential Learning,2023.1.3,59.92139517100053,
50,c,17,2,70,2,,,,,177.1404293999076,178.14020260004327,178.14020260004327,178.14020260004327,178.14020260004327,178.14020260004327,179.13875639997423,179.13875639997423,c,1,0.2668779999949038,None,,,,,,,,,,,,,604757,001,2023-10-09_14h53.34.698,Sequential Learning,2023.1.3,59.92139517100053,
-150,z,17,3,71,3,,,,,179.4237267000135,180.4069870999083,180.4069870999083,180.4069870999083,180.4069870999083,180.42214769986458,181.4220892000012,181.4220892000012,z,1,0.30740150017663836,None,,,,,,,,,,,,,604757,001,2023-10-09_14h53.34.698,Sequential Learning,2023.1.3,59.92139517100053,
-50,x,18,0,72,0,,,,,181.7569335999433,182.74091779999435,182.74091779999435,182.74091779999435,182.74091779999435,182.7557184000034,183.7552012000233,183.7552012000233,x,1,0.26295140013098717,None,,,,,,,,,,,,,604757,001,2023-10-09_14h53.34.698,Sequential Learning,2023.1.3,59.92139517100053,
150,v,18,1,73,1,,,,,184.0399968000129,185.0237188998144,185.0237188998144,185.0237188998144,185.0237188998144,185.03867349983193,186.03844739985652,186.03844739985652,v,1,0.26987379998899996,None,,,,,,,,,,,,,604757,001,2023-10-09_14h53.34.698,Sequential Learning,2023.1.3,59.92139517100053,
50,c,18,2,74,2,,,,,186.33995980001055,187.32360769994557,187.32360769994557,187.32360769994557,187.32360769994557,187.33842559996992,188.33841149997897,188.33841149997897,c,1,0.22420400008559227,None,,,,,,,,,,,,,604757,001,2023-10-09_14h53.34.698,Sequential Learning,2023.1.3,59.92139517100053,
-150,z,18,3,75,3,,,,,188.5898659999948,189.57317440002225,189.57317440002225,189.57317440002225,189.57317440002225,189.58838029997423,190.58832969982177,190.58832969982177,z,1,0.28578140027821064,None,,,,,,,,,,,,,604757,001,2023-10-09_14h53.34.698,Sequential Learning,2023.1.3,59.92139517100053,
-50,x,19,0,76,0,,,,,190.9065574000124,191.89021939993836,191.89021939993836,191.89021939993836,191.89021939993836,191.9051174998749,192.90486070001498,192.90486070001498,x,1,0.16813500015996397,None,,,,,,,,,,,,,604757,001,2023-10-09_14h53.34.698,Sequential Learning,2023.1.3,59.92139517100053,
150,v,19,1,77,1,,,,,193.10663209995255,194.10472459997982,194.10472459997982,194.10472459997982,194.10472459997982,194.10472459997982,195.10471499990672,195.10471499990672,v,1,0.23253479995764792,None,,,,,,,,,,,,,604757,001,2023-10-09_14h53.34.698,Sequential Learning,2023.1.3,59.92139517100053,
50,c,19,2,78,2,,,,,195.35637259995565,196.34013959998265,196.34013959998265,196.34013959998265,196.34013959998265,196.3549941999372,197.35448580002412,197.35448580002412,c,1,0.2202662001363933,None,,,,,,,,,,,,,604757,001,2023-10-09_14h53.34.698,Sequential Learning,2023.1.3,59.92139517100053,
-150,z,19,3,79,3,,,,,197.6063214999158,198.60463600000367,198.60463600000367,198.60463600000367,198.60463600000367,198.60463600000367,199.60452839988284,199.60452839988284,z,1,0.2934062001295388,None,,,,,,,,,,,,,604757,001,2023-10-09_14h53.34.698,Sequential Learning,2023.1.3,59.92139517100053,
-50,x,20,0,80,0,,,,,199.9225345000159,200.90593359991908,200.90593359991908,200.90593359991908,200.90593359991908,200.9210665000137,201.92126660002396,201.92126660002396,x,1,0.2500760001130402,None,,,,,,,,,,,,,604757,001,2023-10-09_14h53.34.698,Sequential Learning,2023.1.3,59.92139517100053,
150,v,20,1,81,1,,,,,202.18946759984829,203.1726940998342,203.1726940998342,203.1726940998342,203.1726940998342,203.18771669990383,204.18769299983978,204.18769299983978,v,1,0.26291010016575456,None,,,,,,,,,,,,,604757,001,2023-10-09_14h53.34.698,Sequential Learning,2023.1.3,59.92139517100053,
50,c,20,2,82,2,,,,,204.47254009987228,205.4557822998613,205.4557822998613,205.4557822998613,205.4557822998613,205.47096169996075,206.47096870001405,206.47096870001405,c,1,0.06251400010660291,None,,,,,,,,,,,,,604757,001,2023-10-09_14h53.34.698,Sequential Learning,2023.1.3,59.92139517100053,
-150,z,20,3,83,3,,,,,206.55600199988112,207.53930919989944,207.53930919989944,207.53930919989944,207.53930919989944,207.55404979991727,208.55401490000077,208.55401490000077,z,1,0.28113050013780594,None,,,,,,,,,,,,,604757,001,2023-10-09_14h53.34.698,Sequential Learning,2023.1.3,59.92139517100053,
-50,x,21,0,84,0,,,,,208.85566359991208,209.8390084998682,209.8390084998682,209.8390084998682,209.8390084998682,209.85413410002366,210.85409709997475,210.85409709997475,x,1,0.11939260014332831,None,,,,,,,,,,,,,604757,001,2023-10-09_14h53.34.698,Sequential Learning,2023.1.3,59.92139517100053,
150,v,21,1,85,1,,,,,211.0056564998813,211.988898599986,211.988898599986,211.988898599986,211.988898599986,212.00395129993558,213.00409929989837,213.00409929989837,v,1,0.24884070013649762,None,,,,,,,,,,,,,604757,001,2023-10-09_14h53.34.698,Sequential Learning,2023.1.3,59.92139517100053,
50,c,21,2,86,2,,,,,213.27220269991085,214.27047210000455,214.27047210000455,214.27047210000455,214.27047210000455,214.27047210000455,215.270483299857,215.270483299857,c,1,0.22621720028109848,None,,,,,,,,,,,,,604757,001,2023-10-09_14h53.34.698,Sequential Learning,2023.1.3,59.92139517100053,
-150,z,21,3,87,3,,,,,215.52182289981283,216.5054409999866,216.5054409999866,216.5054409999866,216.5054409999866,216.520365400007,217.52051569987088,217.52051569987088,z,1,0.267649200046435,None,,,,,,,,,,,,,604757,001,2023-10-09_14h53.34.698,Sequential Learning,2023.1.3,59.92139517100053,
-50,x,22,0,88,0,,,,,217.82194129982963,218.80544879985973,218.80544879985973,218.80544879985973,218.80544879985973,218.82024169992656,219.82029499998316,219.82029499998316,x,1,0.16293760016560555,None,,,,,,,,,,,,,604757,001,2023-10-09_14h53.34.698,Sequential Learning,2023.1.3,59.92139517100053,
150,v,22,1,89,1,,,,,220.00512530002743,220.9883471999783,220.9883471999783,220.9883471999783,220.9883471999783,221.00339800002985,222.00340979988687,222.00340979988687,v,1,0.2516619001980871,None,,,,,,,,,,,,,604757,001,2023-10-09_14h53.34.698,Sequential Learning,2023.1.3,59.92139517100053,
50,c,22,2,90,2,,,,,222.28840540000238,223.2719093998894,223.2719093998894,223.2719093998894,223.2719093998894,223.28694469993934,224.28675729990937,224.28675729990937,c,1,0.3173983001615852,None,,,,,,,,,,,,,604757,001,2023-10-09_14h53.34.698,Sequential Learning,2023.1.3,59.92139517100053,
-150,z,22,3,91,3,,,,,224.6379905999638,225.6217955998145,225.6217955998145,225.6217955998145,225.6217955998145,225.63672309997492,226.63679869985208,226.63679869985208,z,1,0.2840412000659853,None,,,,,,,,,,,,,604757,001,2023-10-09_14h53.34.698,Sequential Learning,2023.1.3,59.92139517100053,
-50,x,23,0,92,0,,,,,226.9549612000119,227.95332129998133,227.95332129998133,227.95332129998133,227.95332129998133,227.95332129998133,228.95287459995598,228.95287459995598,x,1,0.25221150019206107,None,,,,,,,,,,,,,604757,001,2023-10-09_14h53.34.698,Sequential Learning,2023.1.3,59.92139517100053,
150,v,23,1,93,1,,,,,229.2380591998808,230.22140979999676,230.22140979999676,230.22140979999676,230.22140979999676,230.23638070002198,231.236468099989,231.236468099989,v,1,0.2823629002086818,None,,,,,,,,,,,,,604757,001,2023-10-09_14h53.34.698,Sequential Learning,2023.1.3,59.92139517100053,
50,c,23,2,94,2,,,,,231.53786699986085,232.52111089997925,232.52111089997925,232.52111089997925,232.52111089997925,232.53619569982402,233.53621789999306,233.53621789999306,c,1,0.28037550020962954,None,,,,,,,,,,,,,604757,001,2023-10-09_14h53.34.698,Sequential Learning,2023.1.3,59.92139517100053,
-150,z,23,3,95,3,,,,,233.83777410001494,234.82175569981337,234.82175569981337,234.82175569981337,234.82175569981337,234.8363828000147,235.83643689984456,235.83643689984456,z,1,0.2977685001678765,None,,,,,,,,,,,,,604757,001,2023-10-09_14h53.34.698,Sequential Learning,2023.1.3,59.92139517100053,
-50,x,24,0,96,0,,,,,236.154447699897,237.13776029995643,237.13776029995643,237.13776029995643,237.13776029995643,237.15275599993765,238.15267219999805,238.15267219999805,x,1,0.27351339999586344,None,,,,,,,,,,,,,604757,001,2023-10-09_14h53.34.698,Sequential Learning,2023.1.3,59.92139517100053,
150,v,24,1,97,1,,,,,238.4542890000157,239.43775419984013,239.43775419984013,239.43775419984013,239.43775419984013,239.45277690002695,240.45263580000028,240.45263580000028,v,1,0.26695530000142753,None,,,,,,,,,,,,,604757,001,2023-10-09_14h53.34.698,Sequential Learning,2023.1.3,59.92139517100053,
50,c,24,2,98,2,,,,,240.7378897999879,241.73607179988176,241.73607179988176,241.73607179988176,241.73607179988176,241.73607179988176,242.73577559995465,242.73577559995465,c,1,0.46598109998740256,None,,,,,,,,,,,,,604757,001,2023-10-09_14h53.34.698,Sequential Learning,2023.1.3,59.92139517100053,
-150,z,24,3,99,3,,,,,243.22094779997133,244.20411519985646,244.20411519985646,244.20411519985646,244.20411519985646,244.21898629982024,245.219017499825,245.219017499825,z,1,0.3126575001515448,None,,,,,,,,,,,,,604757,001,2023-10-09_14h53.34.698,Sequential Learning,2023.1.3,59.92139517100053,
-50,x,25,0,100,0,,,,,245.55380250001326,246.53724289988168,246.53724289988168,246.53724289988168,246.53724289988168,246.5524768999312,247.55222720000893,247.55222720000893,x,1,0.4823499000631273,None,,,,,,,,,,,,,604757,001,2023-10-09_14h53.34.698,Sequential Learning,2023.1.3,59.92139517100053,
150,v,25,1,101,1,,,,,248.05385399982333,249.03721879981458,249.03721879981458,249.03721879981458,249.03721879981458,249.05217000003904,250.0520564999897,250.0520564999897,v,1,0.45352270011790097,None,,,,,,,,,,,,,604757,001,2023-10-09_14h53.34.698,Sequential Learning,2023.1.3,59.92139517100053,
50,c,25,2,102,2,,,,,250.53716839989647,251.52024600002915,251.52024600002915,251.52024600002915,251.52024600002915,251.5354016998317,252.53539770003408,252.53539770003408,c,1,0.1893544001504779,None,,,,,,,,,,,,,604757,001,2023-10-09_14h53.34.698,Sequential Learning,2023.1.3,59.92139517100053,
-150,z,25,3,103,3,,,,,252.7537354999222,253.75194019987248,253.75194019987248,253.75194019987248,253.75194019987248,253.75194019987248,254.75191019987687,254.75191019987687,z,1,0.35257170000113547,None,,,,,,,,,,,,,604757,001,2023-10-09_14h53.34.698,Sequential Learning,2023.1.3,59.92139517100053,
-50,x,26,0,104,0,,,,,255.1370992998127,256.13541470002383,256.13541470002383,256.13541470002383,256.13541470002383,256.13541470002383,257.135115099838,257.135115099838,x,1,0.6132588000036776,None,,,,,,,,,,,,,604757,001,2023-10-09_14h53.34.698,Sequential Learning,2023.1.3,59.92139517100053,
150,v,26,1,105,1,,,,,257.7701730998233,258.7534829999786,258.7534829999786,258.7534829999786,258.7534829999786,258.76859779981896,259.7683148998767,259.7683148998767,v,1,0.5268535001669079,None,,,,,,,,,,,,,604757,001,2023-10-09_14h53.34.698,Sequential Learning,2023.1.3,59.92139517100053,
50,c,26,2,106,2,,,,,260.3198195998557,261.3185238998849,261.3185238998849,261.3185238998849,261.3185238998849,261.3185238998849,262.31834269990213,262.31834269990213,c,1,0.1648325000423938,None,,,,,,,,,,,,,604757,001,2023-10-09_14h53.34.698,Sequential Learning,2023.1.3,59.92139517100053,
-150,z,26,3,107,3,,,,,262.5030926000327,263.4863852998242,263.4863852998242,263.4863852998242,263.4863852998242,263.50172529998235,264.5014565999154,264.5014565999154,z,1,0.43343889992684126,None,,,,,,,,,,,,,604757,001,2023-10-09_14h53.34.698,Sequential Learning,2023.1.3,59.92139517100053,
-50,x,27,0,108,0,,,,,264.95292329997756,265.93667580001056,265.93667580001056,265.93667580001056,265.93667580001056,265.9513195999898,266.95143869984895,266.95143869984895,x,1,0.5805016001686454,None,,,,,,,,,,,,,604757,001,2023-10-09_14h53.34.698,Sequential Learning,2023.1.3,59.92139517100053,
150,v,27,1,109,1,,,,,267.55293320002966,268.5360369000118,268.5360369000118,268.5360369000118,268.5360369000118,268.55116040003486,269.55163519992493,269.55163519992493,v,1,0.37288660020567477,None,,,,,,,,,,,,,604757,001,2023-10-09_14h53.34.698,Sequential Learning,2023.1.3,59.92139517100053,
50,c,27,2,110,2,,,,,269.9528746998403,270.9363106000237,270.9363106000237,270.9363106000237,270.9363106000237,270.95115519990213,271.95119889988564,271.95119889988564,c,1,0.8502879000734538,None,,,,,,,,,,,,,604757,001,2023-10-09_14h53.34.698,Sequential Learning,2023.1.3,59.92139517100053,
-150,z,27,3,111,3,,,,,272.83587059983984,273.81918670004234,273.81918670004234,273.81918670004234,273.81918670004234,273.8345319998916,274.8344197999686,274.8344197999686,z,1,0.6006394999567419,None,,,,,,,,,,,,,604757,001,2023-10-09_14h53.34.698,Sequential Learning,2023.1.3,59.92139517100053,
-50,x,28,0,112,0,,,,,275.4694611998275,276.45256290002726,276.45256290002726,276.45256290002726,276.45256290002726,276.4675767000299,277.46750659984536,277.46750659984536,x,1,0.3654330999124795,None,,,,,,,,,,,,,604757,001,2023-10-09_14h53.34.698,Sequential Learning,2023.1.3,59.92139517100053,
150,v,28,1,113,1,,,,,277.85240809991956,278.83582549984567,278.83582549984567,278.83582549984567,278.83582549984567,278.8507316999603,279.8507438998204,279.8507438998204,v,1,0.34058100008405745,None,,,,,,,,,,,,,604757,001,2023-10-09_14h53.34.698,Sequential Learning,2023.1.3,59.92139517100053,
50,c,28,2,114,2,,,,,280.2191377999261,281.21732999989763,281.21732999989763,281.21732999989763,281.21732999989763,281.21732999989763,282.2173238999676,282.2173238999676,c,1,0.8485301001928747,None,,,,,,,,,,,,,604757,001,2023-10-09_14h53.34.698,Sequential Learning,2023.1.3,59.92139517100053,
-150,z,28,3,115,3,,,,,283.0855904999189,284.0688410999719,284.0688410999719,284.0688410999719,284.0688410999719,284.083749699872,285.0839905999601,285.0839905999601,z,1,0.3143936002161354,None,,,,,,,,,,,,,604757,001,2023-10-09_14h53.34.698,Sequential Learning,2023.1.3,59.92139517100053,
-50,x,29,0,116,0,,,,,285.4186013999861,286.40295160003006,286.40295160003006,286.40295160003006,286.40295160003006,286.4171716000419,287.417071999982,287.417071999982,x,1,0.4622282001655549,None,,,,,,,,,,,,,604757,001,2023-10-09_14h53.34.698,Sequential Learning,2023.1.3,59.92139517100053,
150,v,29,1,117,1,,,,,287.9018512999173,288.8852579998784,288.8852579998784,288.8852579998784,288.8852579998784,288.9002238998655,289.90054199984297,289.90054199984297,v,1,0.4131814001593739,None,,,,,,,,,,,,,604757,001,2023-10-09_14h53.34.698,Sequential Learning,2023.1.3,59.92139517100053,
50,c,29,2,118,2,,,,,290.33510529994965,291.318438799819,291.318438799819,291.318438799819,291.318438799819,291.33362769987434,292.33337179990485,292.33337179990485,c,1,0.2784010001923889,None,,,,,,,,,,,,,604757,001,2023-10-09_14h53.34.698,Sequential Learning,2023.1.3,59.92139517100053,
-150,z,29,3,119,3,,,,,292.6348927000072,293.6183984999079,293.6183984999079,293.6183984999079,293.6183984999079,293.6336667998694,294.6334801998455,294.6334801998455,z,1,0.2853821001481265,None,,,,,,,,,,,,,604757,001,2023-10-09_14h53.34.698,Sequential Learning,2023.1.3,59.92139517100053,
-50,x,30,0,120,0,,,,,294.9515382000245,295.93488979991525,295.93488979991525,295.93488979991525,295.93488979991525,295.950019299984,296.9500056998804,296.9500056998804,x,1,0.4337975000962615,None,,,,,,,,,,,,,604757,001,2023-10-09_14h53.34.698,Sequential Learning,2023.1.3,59.92139517100053,
150,v,30,1,121,1,,,,,297.4181259998586,298.40150459995493,298.40150459995493,298.40150459995493,298.40150459995493,298.41671419981867,299.41645739995874,299.41645739995874,v,1,0.24932050006464124,None,,,,,,,,,,,,,604757,001,2023-10-09_14h53.34.698,Sequential Learning,2023.1.3,59.92139517100053,
50,c,30,2,122,2,,,,,299.6846314999275,300.6680591998156,300.6680591998156,300.6680591998156,300.6680591998156,300.68323810002767,301.68304379982874,301.68304379982874,c,1,0.09677840024232864,None,,,,,,,,,,,,,604757,001,2023-10-09_14h53.34.698,Sequential Learning,2023.1.3,59.92139517100053,
-150,z,30,3,123,3,,,,,301.8011266000103,302.7847696999088,302.7847696999088,302.7847696999088,302.7847696999088,302.79969369992614,303.7994869998656,303.7994869998656,z,1,0.2275481999386102,None,,,,,,,,,,,,,604757,001,2023-10-09_14h53.34.698,Sequential Learning,2023.1.3,59.92139517100053,
-50,x,31,0,124,0,,,,,304.0510763998609,305.0344477999024,305.0344477999024,305.0344477999024,305.0344477999024,305.0496203999501,306.0493917998392,306.0493917998392,x,1,0.569604700198397,None,,,,,,,,,,,,,604757,001,2023-10-09_14h53.34.698,Sequential Learning,2023.1.3,59.92139517100053,
150,v,31,1,125,1,,,,,306.6509235999547,307.634594099829,307.634594099829,307.634594099829,307.634594099829,307.6494030000176,308.6492655999027,308.6492655999027,v,1,0.010079000145196915,None,,,,,,,,,,,,,604757,001,2023-10-09_14h53.34.698,Sequential Learning,2023.1.3,59.92139517100053,
50,c,31,2,126,2,,,,,308.6843375999015,309.6676753000356,309.6676753000356,309.6676753000356,309.6676753000356,309.6827020999044,310.68274810002185,310.68274810002185,c,1,0.8737906001042575,None,,,,,,,,,,,,,604757,001,2023-10-09_14h53.34.698,Sequential Learning,2023.1.3,59.92139517100053,
-150,z,31,3,127,3,,,,,311.5841317998711,312.5679272999987,312.5679272999987,312.5679272999987,312.5679272999987,312.58266959991306,313.5824345999863,313.5824345999863,z,1,0.6415461001452059,None,,,,,,,,,,,,,604757,001,2023-10-09_14h53.34.698,Sequential Learning,2023.1.3,59.92139517100053,
-50,x,32,0,128,0,,,,,314.2507837000303,315.2353403000161,315.2353403000161,315.2353403000161,315.2353403000161,315.24922959995456,316.2490036999807,316.2490036999807,x,1,0.31786550022661686,None,,,,,,,,,,,,,604757,001,2023-10-09_14h53.34.698,Sequential Learning,2023.1.3,59.92139517100053,
150,v,32,1,129,1,,,,,316.60036439984106,317.584091699915,317.584091699915,317.584091699915,317.584091699915,317.59886899986304,318.59890470001847,318.59890470001847,v,1,0.2912959000095725,None,,,,,,,,,,,,,604757,001,2023-10-09_14h53.34.698,Sequential Learning,2023.1.3,59.92139517100053,
50,c,32,2,130,2,,,,,318.9170395999681,319.90064739994705,319.90064739994705,319.90064739994705,319.90064739994705,319.91543589998037,320.9153449998703,320.9153449998703,c,1,0.26418440020643175,None,,,,,,,,,,,,,604757,001,2023-10-09_14h53.34.698,Sequential Learning,2023.1.3,59.92139517100053,
-150,z,32,3,131,3,,,,,321.2003770999145,322.1838148999959,322.1838148999959,322.1838148999959,322.1838148999959,322.19881649990566,323.1986530998256,323.1986530998256,z,1,0.40186360012739897,None,,,,,,,,,,,,,604757,001,2023-10-09_14h53.34.698,Sequential Learning,2023.1.3,59.92139517100053,
-50,x,33,0,132,0,,,,,323.6337939000223,324.6319710998796,324.6319710998796,324.6319710998796,324.6319710998796,324.6319710998796,325.6319335999433,325.6319335999433,x,1,0.4992694000247866,None,,,,,,,,,,,,,604757,001,2023-10-09_14h53.34.698,Sequential Learning,2023.1.3,59.92139517100053,
150,v,33,1,133,1,,,,,326.1503309998661,327.14864299981855,327.14864299981855,327.14864299981855,327.14864299981855,327.14864299981855,328.14846319984645,328.14846319984645,v,1,0.34345730021595955,None,,,,,,,,,,,,,604757,001,2023-10-09_14h53.34.698,Sequential Learning,2023.1.3,59.92139517100053,
50,c,33,2,134,2,,,,,328.5164795999881,329.4998891998548,329.4998891998548,329.4998891998548,329.4998891998548,329.51506649982184,330.5151251000352,330.5151251000352,c,1,0.31970950006507337,None,,,,,,,,,,,,,604757,001,2023-10-09_14h53.34.698,Sequential Learning,2023.1.3,59.92139517100053,
-150,z,33,3,135,3,,,,,330.8664843000006,331.8497868999839,331.8497868999839,331.8497868999839,331.8497868999839,331.8650076999329,332.8649778999388,332.8649778999388,z,1,0.29865590017288923,None,,,,,,,,,,,,,604757,001,2023-10-09_14h53.34.698,Sequential Learning,2023.1.3,59.92139517100053,
-50,x,34,0,136,0,,,,,333.183262999868,334.1664719998371,334.1664719998371,334.1664719998371,334.1664719998371,334.18153699999675,335.18152319989167,335.18152319989167,x,1,0.2691951999440789,None,,,,,,,,,,,,,604757,001,2023-10-09_14h53.34.698,Sequential Learning,2023.1.3,59.92139517100053,
150,v,34,1,137,1,,,,,335.48301369999535,336.4665613998659,336.4665613998659,336.4665613998659,336.4665613998659,336.48162069986574,337.4813989000395,337.4813989000395,v,1,0.35264620021916926,None,,,,,,,,,,,,,604757,001,2023-10-09_14h53.34.698,Sequential Learning,2023.1.3,59.92139517100053,
50,c,34,2,138,2,,,,,337.86629499983974,338.84968269988894,338.84968269988894,338.84968269988894,338.84968269988894,338.8647413998842,339.86453329981305,339.86453329981305,c,1,0.2575419000349939,None,,,,,,,,,,,,,604757,001,2023-10-09_14h53.34.698,Sequential Learning,2023.1.3,59.92139517100053,
-150,z,34,3,139,3,,,,,340.149345099926,341.13300449983217,341.13300449983217,341.13300449983217,341.13300449983217,341.1480280999094,342.1477357998956,342.1477357998956,z,1,0.6876951002050191,None,,,,,,,,,,,,,604757,001,2023-10-09_14h53.34.698,Sequential Learning,2023.1.3,59.92139517100053,
-50,x,35,0,140,0,,,,,342.86592320003547,343.8500300999731,343.8500300999731,343.8500300999731,343.8500300999731,343.8645426000003,344.8642692998983,344.8642692998983,x,1,0.3333782001864165,None,,,,,,,,,,,,,604757,001,2023-10-09_14h53.34.698,Sequential Learning,2023.1.3,59.92139517100053,
150,v,35,1,141,1,,,,,345.2158700998407,346.1992867998779,346.1992867998779,346.1992867998779,346.1992867998779,346.2142930999398,347.2143228999339,347.2143228999339,v,1,0.3870686001610011,None,,,,,,,,,,,,,604757,001,2023-10-09_14h53.34.698,Sequential Learning,2023.1.3,59.92139517100053,
50,c,35,2,142,2,,,,,347.6327180999797,348.6159768998623,348.6159768998623,348.6159768998623,348.6159768998623,348.6310150998179,349.63084209989756,349.63084209989756,c,1,0.27273950004018843,None,,,,,,,,,,,,,604757,001,2023-10-09_14h53.34.698,Sequential Learning,2023.1.3,59.92139517100053,
-150,z,35,3,143,3,,,,,349.93231859989464,350.91573089989834,350.91573089989834,350.91573089989834,350.91573089989834,350.9307921999134,351.93059340002947,351.93059340002947,z,1,0.4469811001326889,None,,,,,,,,,,,,,604757,001,2023-10-09_14h53.34.698,Sequential Learning,2023.1.3,59.92139517100053,
-50,x,36,0,144,0,,,,,352.3989636998158,353.3823464999441,353.3823464999441,353.3823464999441,353.3823464999441,353.3972844998352,354.3972761000041,354.3972761000041,x,1,0.30272700008936226,None,,,,,,,,,,,,,604757,001,2023-10-09_14h53.34.698,Sequential Learning,2023.1.3,59.92139517100053,
150,v,36,1,145,1,,,,,354.7321377999615,355.71559499995783,355.71559499995783,355.71559499995783,355.71559499995783,355.7306456998922,356.7304392999504,356.7304392999504,v,1,0.24214760027825832,None,,,,,,,,,,,,,604757,001,2023-10-09_14h53.34.698,Sequential Learning,2023.1.3,59.92139517100053,
50,c,36,2,146,2,,,,,356.9987730998546,357.98202620004304,357.98202620004304,357.98202620004304,357.98202620004304,357.99707099981606,358.9969138999004,358.9969138999004,c,1,0.3544182002078742,None,,,,,,,,,,,,,604757,001,2023-10-09_14h53.34.698,Sequential Learning,2023.1.3,59.92139517100053,
-150,z,36,3,147,3,,,,,359.3820360999089,360.36526809982024,360.36526809982024,360.36526809982024,360.36526809982024,360.3801827998832,361.3801863999106,361.3801863999106,z,1,0.4513340999837965,None,,,,,,,,,,,,,604757,001,2023-10-09_14h53.34.698,Sequential Learning,2023.1.3,59.92139517100053,
-50,x,37,0,148,0,,,,,361.86538219987415,362.8486762000248,362.8486762000248,362.8486762000248,362.8486762000248,362.86359749990515,363.86352379992604,363.86352379992604,x,1,0.2756101998966187,None,,,,,,,,,,,,,604757,001,2023-10-09_14h53.34.698,Sequential Learning,2023.1.3,59.92139517100053,
150,v,37,1,149,1,,,,,364.16507109999657,365.1633798000403,365.1633798000403,365.1633798000403,365.1633798000403,365.1633798000403,366.1633323999122,366.1633323999122,v,1,0.28433920023962855,None,,,,,,,,,,,,,604757,001,2023-10-09_14h53.34.698,Sequential Learning,2023.1.3,59.92139517100053,
50,c,37,2,150,2,,,,,366.4817115999758,367.4800829999149,367.4800829999149,367.4800829999149,367.4800829999149,367.4800829999149,368.4799475998152,368.4799475998152,c,1,0.25208060001023114,None,,,,,,,,,,,,,604757,001,2023-10-09_14h53.34.698,Sequential Learning,2023.1.3,59.92139517100053,
-150,z,37,3,151,3,,,,,368.76469550002366,369.76341459993273,369.76341459993273,369.76341459993273,369.76341459993273,369.76341459993273,370.76314549986273,370.76314549986273,z,1,0.22718400019221008,None,,,,,,,,,,,,,604757,001,2023-10-09_14h53.34.698,Sequential Learning,2023.1.3,59.92139517100053,
-50,x,38,0,152,0,,,,,371.0147541000042,371.99795340001583,371.99795340001583,371.99795340001583,371.99795340001583,372.013358599972,373.0131087999325,373.0131087999325,x,1,0.039839700097218156,None,,,,,,,,,,,,,604757,001,2023-10-09_14h53.34.698,Sequential Learning,2023.1.3,59.92139517100053,
150,v,38,1,153,1,,,,,373.08108439994976,374.0661350998562,374.0661350998562,374.0661350998562,374.0661350998562,374.07970459992066,375.07955119991675,375.07955119991675,v,1,0.25541610014624894,None,,,,,,,,,,,,,604757,001,2023-10-09_14h53.34.698,Sequential Learning,2023.1.3,59.92139517100053,
50,c,38,2,154,2,,,,,375.36468270001933,376.3476576998364,376.3476576998364,376.3476576998364,376.3476576998364,376.3628310998902,377.3628477000166,377.3628477000166,c,1,0.2810487002134323,None,,,,,,,,,,,,,604757,001,2023-10-09_14h53.34.698,Sequential Learning,2023.1.3,59.92139517100053,
-150,z,38,3,155,3,,,,,377.66442429996096,378.64787340001203,378.64787340001203,378.64787340001203,378.64787340001203,378.6629353000317,379.6628091998864,379.6628091998864,z,1,0.28354019997641444,None,,,,,,,,,,,,,604757,001,2023-10-09_14h53.34.698,Sequential Learning,2023.1.3,59.92139517100053,
-50,x,39,0,156,0,,,,,379.9809941998683,380.9642765999306,380.9642765999306,380.9642765999306,380.9642765999306,380.9792293999344,381.9793485000264,381.9793485000264,x,1,0.27018520003184676,None,,,,,,,,,,,,,604757,001,2023-10-09_14h53.34.698,Sequential Learning,2023.1.3,59.92139517100053,
150,v,39,1,157,1,,,,,382.2809041000437,383.2642353998963,383.2642353998963,383.2642353998963,383.2642353998963,383.27930029993877,384.2793317998294,384.2793317998294,v,1,0.28350500017404556,None,,,,,,,,,,,,,604757,001,2023-10-09_14h53.34.698,Sequential Learning,2023.1.3,59.92139517100053,
50,c,39,2,158,2,,,,,384.5805621999316,385.57927570003085,385.57927570003085,385.57927570003085,385.57927570003085,385.57927570003085,386.57908089994453,386.57908089994453,c,1,0.22279289993457496,None,,,,,,,,,,,,,604757,001,2023-10-09_14h53.34.698,Sequential Learning,2023.1.3,59.92139517100053,
-150,z,39,3,159,3,,,,,386.83057500002906,387.81445059995167,387.81445059995167,387.81445059995167,387.81445059995167,387.82919179997407,388.8289344999939,388.8289344999939,z,1,0.29124940000474453,None,,,,,,,,,,,,,604757,001,2023-10-09_14h53.34.698,Sequential Learning,2023.1.3,59.92139517100053,
-50,x,40,0,160,0,,,,,389.1471700000111,390.13050259999,390.13050259999,390.13050259999,390.13050259999,390.14568630000576,391.14558129990473,391.14558129990473,x,1,0.3133915001526475,None,,,,,,,,,,,,,604757,001,2023-10-09_14h53.34.698,Sequential Learning,2023.1.3,59.92139517100053,
150,v,40,1,161,1,,,,,391.4804133998696,392.463643199997,392.463643199997,392.463643199997,392.463643199997,392.4789582998492,393.47889010002837,393.47889010002837,v,1,0.28219410008750856,None,,,,,,,,,,,,,604757,001,2023-10-09_14h53.34.698,Sequential Learning,2023.1.3,59.92139517100053,
50,c,40,2,162,2,,,,,393.7802285000216,394.7638363998849,394.7638363998849,394.7638363998849,394.7638363998849,394.778814899968,395.77873059990816,395.77873059990816,c,1,0.21214750013314188,None,,,,,,,,,,,,,604757,001,2023-10-09_14h53.34.698,Sequential Learning,2023.1.3,59.92139517100053,
-150,z,40,3,163,3,,,,,396.0132540999912,396.9966887999326,396.9966887999326,396.9966887999326,396.9966887999326,397.0119042999577,398.0117522999644,398.0117522999644,z,1,0.42616600007750094,None,,,,,,,,,,,,,604757,001,2023-10-09_14h53.34.698,Sequential Learning,2023.1.3,59.92139517100053,
-50,x,41,0,164,0,,,,,398.463170300005,399.44655699981377,399.44655699981377,399.44655699981377,399.44655699981377,399.46173370000906,400.461959999986,400.461959999986,x,1,0.2592921000905335,None,,,,,,,,,,,,,604757,001,2023-10-09_14h53.34.698,Sequential Learning,2023.1.3,59.92139517100053,
150,v,41,1,165,1,,,,,400.7464494998567,401.7301634999458,401.7301634999458,401.7301634999458,401.7301634999458,401.7452334999107,402.74485369981267,402.74485369981267,v,1,0.23372580017894506,None,,,,,,,,,,,,,604757,001,2023-10-09_14h53.34.698,Sequential Learning,2023.1.3,59.92139517100053,
50,c,41,2,166,2,,,,,402.9967063998338,403.9951050998643,403.9951050998643,403.9951050998643,403.9951050998643,403.9951050998643,404.9947863998823,404.9947863998823,c,1,0.26294850022532046,None,,,,,,,,,,,,,604757,001,2023-10-09_14h53.34.698,Sequential Learning,2023.1.3,59.92139517100053,
-150,z,41,3,167,3,,,,,405.27963569993153,406.26288749999367,406.26288749999367,406.26288749999367,406.26288749999367,406.2780963999685,407.2784346998669,407.2784346998669,z,1,0.26247710012830794,None,,,,,,,,,,,,,604757,001,2023-10-09_14h53.34.698,Sequential Learning,2023.1.3,59.92139517100053,
-50,x,42,0,168,0,,,,,407.56304829986766,408.5463878000155,408.5463878000155,408.5463878000155,408.5463878000155,408.5612580999732,409.56126849981956,409.56126849981956,x,1,0.2125041000545025,None,,,,,,,,,,,,,604757,001,2023-10-09_14h53.34.698,Sequential Learning,2023.1.3,59.92139517100053,
150,v,42,1,169,1,,,,,409.7960250999313,410.7945687000174,410.7945687000174,410.7945687000174,410.7945687000174,410.7945687000174,411.7946247998625,411.7946247998625,v,1,0.39211010024882853,None,,,,,,,,,,,,,604757,001,2023-10-09_14h53.34.698,Sequential Learning,2023.1.3,59.92139517100053,
50,c,42,2,170,2,,,,,412.2125795998145,413.1961835999973,413.1961835999973,413.1961835999973,413.1961835999973,413.2112962999381,414.2111769998446,414.2111769998446,c,1,0.2538638000842184,None,,,,,,,,,,,,,604757,001,2023-10-09_14h53.34.698,Sequential Learning,2023.1.3,59.92139517100053,
-150,z,42,3,171,3,,,,,414.4958248999901,415.49458079994656,415.49458079994656,415.49458079994656,415.49458079994656,415.49458079994656,416.4943158000242,416.4943158000242,z,1,0.28822850016877055,None,,,,,,,,,,,,,604757,001,2023-10-09_14h53.34.698,Sequential Learning,2023.1.3,59.92139517100053,
-50,x,43,0,172,0,,,,,416.81252159993164,417.7959261999931,417.7959261999931,417.7959261999931,417.7959261999931,417.81081739999354,418.81108439993113,418.81108439993113,x,1,0.05523870000615716,None,,,,,,,,,,,,,604757,001,2023-10-09_14h53.34.698,Sequential Learning,2023.1.3,59.92139517100053,
150,v,43,1,173,1,,,,,418.8957694999408,419.8792942999862,419.8792942999862,419.8792942999862,419.8792942999862,419.89422909985296,420.89411509991623,420.89411509991623,v,1,0.20511900004930794,None,,,,,,,,,,,,,604757,001,2023-10-09_14h53.34.698,Sequential Learning,2023.1.3,59.92139517100053,
50,c,43,2,174,2,,,,,421.12907189992256,422.1124752999749,422.1124752999749,422.1124752999749,422.1124752999749,422.1275959999766,423.1272942998912,423.1272942998912,c,1,0.9098198001738638,None,,,,,,,,,,,,,604757,001,2023-10-09_14h53.34.698,Sequential Learning,2023.1.3,59.92139517100053,
-150,z,43,3,175,3,,,,,424.06217899988405,425.04554369999096,425.04554369999096,425.04554369999096,425.04554369999096,425.060831699986,426.06055529997684,426.06055529997684,z,1,0.09973550005815923,None,,,,,,,,,,,,,604757,001,2023-10-09_14h53.34.698,Sequential Learning,2023.1.3,59.92139517100053,
-50,x,44,0,176,0,,,,,426.1789073999971,427.16230800002813,427.16230800002813,427.16230800002813,427.16230800002813,427.1773512000218,428.17706099990755,428.17706099990755,x,1,0.37571769999340177,None,,,,,,,,,,,,,604757,001,2023-10-09_14h53.34.698,Sequential Learning,2023.1.3,59.92139517100053,
150,v,44,1,177,1,,,,,428.57868159981444,429.56211799988523,429.56211799988523,429.56211799988523,429.56211799988523,429.57700769999065,430.57693320000544,430.57693320000544,v,1,0.29780260007828474,None,,,,,,,,,,,,,604757,001,2023-10-09_14h53.34.698,Sequential Learning,2023.1.3,59.92139517100053,
50,c,44,2,178,2,,,,,430.89528079982847,431.8938355999999,431.8938355999999,431.8938355999999,431.8938355999999,431.8938355999999,432.89343849988654,432.89343849988654,c,1,0.2653673002496362,None,,,,,,,,,,,,,604757,001,2023-10-09_14h53.34.698,Sequential Learning,2023.1.3,59.92139517100053,
-150,z,44,3,179,3,,,,,433.17839369992726,434.1767932998482,434.1767932998482,434.1767932998482,434.1767932998482,434.1767932998482,435.1769216998946,435.1769216998946,z,1,0.08979150000959635,None,,,,,,,,,,,,,604757,001,2023-10-09_14h53.34.698,Sequential Learning,2023.1.3,59.92139517100053,
-50,x,45,0,180,0,,,,,435.2950414000079,436.2935637999326,436.2935637999326,436.2935637999326,436.2935637999326,436.2935637999326,437.293229999952,437.293229999952,x,1,0.15589249995537102,None,,,,,,,,,,,,,604757,001,2023-10-09_14h53.34.698,Sequential Learning,2023.1.3,59.92139517100053,
150,v,45,1,181,1,,,,,437.4781768999528,438.46180589986034,438.46180589986034,438.46180589986034,438.46180589986034,438.4767991998233,439.47663659998216,439.47663659998216,v,1,0.2354330001398921,None,,,,,,,,,,,,,604757,001,2023-10-09_14h53.34.698,Sequential Learning,2023.1.3,59.92139517100053,
50,c,45,2,182,2,,,,,439.74475539987907,440.7433239000384,440.7433239000384,440.7433239000384,440.7433239000384,440.7433239000384,441.74302880000323,441.74302880000323,c,1,0.32765310001559556,None,,,,,,,,,,,,,604757,001,2023-10-09_14h53.34.698,Sequential Learning,2023.1.3,59.92139517100053,
-150,z,45,3,183,3,,,,,442.0947366999462,443.0783842999954,443.0783842999954,443.0783842999954,443.0783842999954,443.09311469993554,444.09289349988103,444.09289349988103,z,1,0.3055567000992596,None,,,,,,,,,,,,,604757,001,2023-10-09_14h53.34.698,Sequential Learning,2023.1.3,59.92139517100053,
-50,x,46,0,184,0,,,,,444.42797459987924,445.4265637998469,445.4265637998469,445.4265637998469,445.4265637998469,445.4265637998469,446.4261974999681,446.4261974999681,x,1,0.15603279997594655,None,,,,,,,,,,,,,604757,001,2023-10-09_14h53.34.698,Sequential Learning,2023.1.3,59.92139517100053,
150,v,46,1,185,1,,,,,446.6111578999553,447.5948228999041,447.5948228999041,447.5948228999041,447.5948228999041,447.6097061999608,448.60941569996066,448.60941569996066,v,1,0.26077960012480617,None,,,,,,,,,,,,,604757,001,2023-10-09_14h53.34.698,Sequential Learning,2023.1.3,59.92139517100053,
50,c,46,2,186,2,,,,,448.89428170002066,449.8778045999352,449.8778045999352,449.8778045999352,449.8778045999352,449.8928276998922,450.8929534999188,450.8929534999188,c,1,0.24990230007097125,None,,,,,,,,,,,,,604757,001,2023-10-09_14h53.34.698,Sequential Learning,2023.1.3,59.92139517100053,
-150,z,46,3,187,3,,,,,451.1609258998651,452.1443411000073,452.1443411000073,452.1443411000073,452.1443411000073,452.15922489995137,453.1593249998987,453.1593249998987,z,1,0.3019686001352966,None,,,,,,,,,,,,,604757,001,2023-10-09_14h53.34.698,Sequential Learning,2023.1.3,59.92139517100053,
-50,x,47,0,188,0,,,,,453.49416789994575,454.4925079999957,454.4925079999957,454.4925079999957,454.4925079999957,454.4925079999957,455.4925241000019,455.4925241000019,x,1,0.2666869000531733,None,,,,,,,,,,,,,604757,001,2023-10-09_14h53.34.698,Sequential Learning,2023.1.3,59.92139517100053,
150,v,47,1,189,1,,,,,455.7772909998894,456.76059619989246,456.76059619989246,456.76059619989246,456.76059619989246,456.7758481998462,457.7758589000441,457.7758589000441,v,1,0.20226810011081398,None,,,,,,,,,,,,,604757,001,2023-10-09_14h53.34.698,Sequential Learning,2023.1.3,59.92139517100053,
50,c,47,2,190,2,,,,,458.0105006999802,458.9941353998147,458.9941353998147,458.9941353998147,458.9941353998147,459.00905120000243,460.0089191000443,460.0089191000443,c,1,0.17848120001144707,None,,,,,,,,,,,,,604757,001,2023-10-09_14h53.34.698,Sequential Learning,2023.1.3,59.92139517100053,
-150,z,47,3,191,3,,,,,460.2104177000001,461.20904350001365,461.20904350001365,461.20904350001365,461.20904350001365,461.20904350001365,462.20902689988725,462.20902689988725,z,1,0.2821114002726972,None,,,,,,,,,,,,,604757,001,2023-10-09_14h53.34.698,Sequential Learning,2023.1.3,59.92139517100053,
-50,x,48,0,192,0,,,,,462.51039519999176,463.49369859998114,463.49369859998114,463.49369859998114,463.49369859998114,463.50888239988126,464.5089344999287,464.5089344999287,x,1,0.5889364001341164,None,,,,,,,,,,,,,604757,001,2023-10-09_14h53.34.698,Sequential Learning,2023.1.3,59.92139517100053,
150,v,48,1,193,1,,,,,465.12669579987414,466.11017949995585,466.11017949995585,466.11017949995585,466.11017949995585,466.1255818998907,467.1255588999484,467.1255588999484,v,1,0.3154523002449423,None,,,,,,,,,,,,,604757,001,2023-10-09_14h53.34.698,Sequential Learning,2023.1.3,59.92139517100053,
50,c,48,2,194,2,,,,,467.46024729986675,468.4439429999329,468.4439429999329,468.4439429999329,468.4439429999329,468.45869469991885,469.45841399999335,469.45841399999335,c,1,0.2899890001863241,None,,,,,,,,,,,,,604757,001,2023-10-09_14h53.34.698,Sequential Learning,2023.1.3,59.92139517100053,
-150,z,48,3,195,3,,,,,469.77675680001266,470.75991009990685,470.75991009990685,470.75991009990685,470.75991009990685,470.7751674999017,471.7755644998979,471.7755644998979,z,1,0.2918801000341773,None,,,,,,,,,,,,,604757,001,2023-10-09_14h53.34.698,Sequential Learning,2023.1.3,59.92139517100053,
-50,x,49,0,196,0,,,,,472.0934053999372,473.09170260000974,473.09170260000974,473.09170260000974,473.09170260000974,473.09170260000974,474.09167929994874,474.09167929994874,x,1,0.43886080011725426,None,,,,,,,,,,,,,604757,001,2023-10-09_14h53.34.698,Sequential Learning,2023.1.3,59.92139517100053,
150,v,49,1,197,1,,,,,474.55980549985543,475.5430954999756,475.5430954999756,475.5430954999756,475.5430954999756,475.5581427998841,476.55809809989296,476.55809809989296,v,1,0.4467587999533862,None,,,,,,,,,,,,,604757,001,2023-10-09_14h53.34.698,Sequential Learning,2023.1.3,59.92139517100053,
50,c,49,2,198,2,,,,,477.0262394999154,478.0247678998858,478.0247678998858,478.0247678998858,478.0247678998858,478.0247678998858,479.02474889997393,479.02474889997393,c,1,0.36805290007032454,None,,,,,,,,,,,,,604757,001,2023-10-09_14h53.34.698,Sequential Learning,2023.1.3,59.92139517100053,
-150,z,49,3,199,3,,,,,479.4268196998164,480.42492909985594,480.42492909985594,480.42492909985594,480.42492909985594,480.42492909985594,481.4246576000005,481.4246576000005,z,1,0.35527110006660223,None,,,,,,,,,,,,,604757,001,2023-10-09_14h53.34.698,Sequential Learning,2023.1.3,59.92139517100053,
50,c,,,,,0,0,0,2,,,,,,,,,,,,,481.8095658000093,482.79320949991234,482.79320949991234,482.79320949991234,482.79320949991234,482.807918000035,483.8078254999127,483.8078254999127,c,1,1.4841434000991285,None,604757,001,2023-10-09_14h53.34.698,Sequential Learning,2023.1.3,59.92139517100053,
-50,x,,,,,0,1,1,0,,,,,,,,,,,,,485.32602629996836,486.3092864998616,486.3092864998616,486.3092864998616,486.3092864998616,486.32450450002216,487.3244091998786,487.3244091998786,x,1,1.57589830015786,None,604757,001,2023-10-09_14h53.34.698,Sequential Learning,2023.1.3,59.92139517100053,
50,c,,,,,0,2,2,2,,,,,,,,,,,,,488.9259089999832,489.90927099995315,489.90927099995315,489.90927099995315,489.90927099995315,489.9243365000002,490.92428979999386,490.92428979999386,c,1,1.1476602002512664,None,604757,001,2023-10-09_14h53.34.698,Sequential Learning,2023.1.3,59.92139517100053,
-50,x,,,,,0,3,3,0,,,,,,,,,,,,,492.0925072999671,493.0758142999839,493.0758142999839,493.0758142999839,493.0758142999839,493.090832100017,494.09056099993177,494.09056099993177,z,0,0.3897897000424564,None,604757,001,2023-10-09_14h53.34.698,Sequential Learning,2023.1.3,59.92139517100053,
50,c,,,,,1,0,4,2,,,,,,,,,,,,,494.5088436999358,495.49256609985605,495.49256609985605,495.49256609985605,495.49256609985605,495.50744339986704,496.50741179985926,496.50741179985926,c,1,0.8210382000543177,None,604757,001,2023-10-09_14h53.34.698,Sequential Learning,2023.1.3,59.92139517100053,
-150,z,,,,,1,1,5,3,,,,,,,,,,,,,497.3584944999311,498.3421022000257,498.3421022000257,498.3421022000257,498.3421022000257,498.3572145998478,499.3573400999885,499.3573400999885,z,1,0.430506800301373,None,604757,001,2023-10-09_14h53.34.698,Sequential Learning,2023.1.3,59.92139517100053,
-150,z,,,,,1,2,6,3,,,,,,,,,,,,,499.8088234998286,500.7920413999818,500.7920413999818,500.7920413999818,500.7920413999818,500.80692039988935,501.80697439983487,501.80697439983487,x,0,0.45805140025913715,None,604757,001,2023-10-09_14h53.34.698,Sequential Learning,2023.1.3,59.92139517100053,
-50,x,,,,,1,3,7,0,,,,,,,,,,,,,502.29176549986005,503.29025069996715,503.29025069996715,503.29025069996715,503.29025069996715,503.29025069996715,504.29015569994226,504.29015569994226,x,1,1.238177299965173,None,604757,001,2023-10-09_14h53.34.698,Sequential Learning,2023.1.3,59.92139517100053,
-50,x,,,,,2,0,8,0,,,,,,,,,,,,,505.55818429985084,506.54159659985453,506.54159659985453,506.54159659985453,506.54159659985453,506.556707700016,507.55675249989145,507.55675249989145,x,1,0.4037828999571502,None,604757,001,2023-10-09_14h53.34.698,Sequential Learning,2023.1.3,59.92139517100053,
-150,z,,,,,2,1,9,3,,,,,,,,,,,,,507.9916511999909,508.97487049992196,508.97487049992196,508.97487049992196,508.97487049992196,508.99027279997244,509.9900815000292,509.9900815000292,z,1,0.5746796000748873,None,604757,001,2023-10-09_14h53.34.698,Sequential Learning,2023.1.3,59.92139517100053,
50,c,,,,,2,2,10,2,,,,,,,,,,,,,510.59138689981773,511.57498369994573,511.57498369994573,511.57498369994573,511.57498369994573,511.59015489998274,512.5897872999776,512.5897872999776,c,1,0.6717340000905097,None,604757,001,2023-10-09_14h53.34.698,Sequential Learning,2023.1.3,59.92139517100053,
150,v,,,,,2,3,11,1,,,,,,,,,,,,,513.2915707998909,514.2897824000102,514.2897824000102,514.2897824000102,514.2897824000102,514.2897824000102,515.289689600002,515.289689600002,v,1,0.500603100284934,None,604757,001,2023-10-09_14h53.34.698,Sequential Learning,2023.1.3,59.92139517100053,
-50,x,,,,,3,0,12,0,,,,,,,,,,,,,515.8247364000417,516.8082286999561,516.8082286999561,516.8082286999561,516.8082286999561,516.823106699856,517.8229541999754,517.8229541999754,x,1,0.5957606001757085,None,604757,001,2023-10-09_14h53.34.698,Sequential Learning,2023.1.3,59.92139517100053,
150,v,,,,,3,1,13,1,,,,,,,,,,,,,518.4408436999656,519.4243919998407,519.4243919998407,519.4243919998407,519.4243919998407,519.4395607998595,520.4393641999923,520.4393641999923,v,1,0.44758540019392967,None,604757,001,2023-10-09_14h53.34.698,Sequential Learning,2023.1.3,59.92139517100053,
50,c,,,,,3,2,14,2,,,,,,,,,,,,,520.9078120000195,521.8909701998346,521.8909701998346,521.8909701998346,521.8909701998346,521.9059414998628,522.9059488000348,522.9059488000348,c,1,0.5785800002049655,None,604757,001,2023-10-09_14h53.34.698,Sequential Learning,2023.1.3,59.92139517100053,
150,v,,,,,3,3,15,1,,,,,,,,,,,,,523.5076492000371,524.5060262000188,524.5060262000188,524.5060262000188,524.5060262000188,524.5060262000188,525.505836899858,525.505836899858,v,1,0.5212042001076043,None,604757,001,2023-10-09_14h53.34.698,Sequential Learning,2023.1.3,59.92139517100053,
-50,x,,,,,4,0,16,0,,,,,,,,,,,,,526.0573085998185,527.041017799871,527.041017799871,527.041017799871,527.041017799871,527.055981699843,528.0558746999595,528.0558746999595,x,1,0.6639967001974583,None,604757,001,2023-10-09_14h53.34.698,Sequential Learning,2023.1.3,59.92139517100053,
-50,x,,,,,4,1,17,0,,,,,,,,,,,,,528.740504299989,529.7238691998646,529.7238691998646,529.7238691998646,529.7238691998646,529.7391510000452,530.738855100004,530.738855100004,x,1,0.388467000098899,None,604757,001,2023-10-09_14h53.34.698,Sequential Learning,2023.1.3,59.92139517100053,
-50,x,,,,,4,2,18,0,,,,,,,,,,,,,531.1571734999306,532.1405652000103,532.1405652000103,532.1405652000103,532.1405652000103,532.1557646000292,533.1554187999573,533.1554187999573,x,1,0.3963543002028018,None,604757,001,2023-10-09_14h53.34.698,Sequential Learning,2023.1.3,59.92139517100053,
-150,z,,,,,4,3,19,3,,,,,,,,,,,,,533.5737582999282,534.5569261999335,534.5569261999335,534.5569261999335,534.5569261999335,534.5721092999447,535.5721483998932,535.5721483998932,z,1,0.8660105001181364,None,604757,001,2023-10-09_14h53.34.698,Sequential Learning,2023.1.3,59.92139517100053,
-150,z,,,,,5,0,20,3,,,,,,,,,,,,,536.4568163999356,537.4403392998502,537.4403392998502,537.4403392998502,537.4403392998502,537.4557006999385,538.4552038998809,538.4552038998809,z,1,0.5223993002437055,None,604757,001,2023-10-09_14h53.34.698,Sequential Learning,2023.1.3,59.92139517100053,
-50,x,,,,,5,1,21,0,,,,,,,,,,,,,539.0070070999209,539.9903875000309,539.9903875000309,539.9903875000309,539.9903875000309,540.0052812998183,541.0049586000387,541.0049586000387,c,0,0.47547159995883703,None,604757,001,2023-10-09_14h53.34.698,Sequential Learning,2023.1.3,59.92139517100053,
-150,z,,,,,5,2,22,3,,,,,,,,,,,,,541.506849099882,542.490456199972,542.490456199972,542.490456199972,542.490456199972,542.5051151998341,543.5053512998857,543.5053512998857,z,1,0.5880603999830782,None,604757,001,2023-10-09_14h53.34.698,Sequential Learning,2023.1.3,59.92139517100053,
150,v,,,,,5,3,23,1,,,,,,,,,,,,,544.123260299908,545.1066993998829,545.1066993998829,545.1066993998829,545.1066993998829,545.1218136998359,546.1214725000318,546.1214725000318,v,1,0.5248421002179384,None,604757,001,2023-10-09_14h53.34.698,Sequential Learning,2023.1.3,59.92139517100053,
-50,x,,,,,6,0,24,0,,,,,,,,,,,,,546.6732053000014,547.6577780998778,547.6577780998778,547.6577780998778,547.6577780998778,547.6715893999208,548.6714737999719,548.6714737999719,x,1,1.1670528003014624,None,604757,001,2023-10-09_14h53.34.698,Sequential Learning,2023.1.3,59.92139517100053,
150,v,,,,,6,1,25,1,,,,,,,,,,,,,549.872834000038,550.8563784998842,550.8563784998842,550.8563784998842,550.8563784998842,550.8713666999247,551.8714454998262,551.8714454998262,v,1,0.47104820027016103,None,604757,001,2023-10-09_14h53.34.698,Sequential Learning,2023.1.3,59.92139517100053,
-50,x,,,,,6,2,26,0,,,,,,,,,,,,,552.3725278000347,553.356647499837,553.356647499837,553.356647499837,553.356647499837,553.3714008999523,554.3711790000089,554.3711790000089,x,1,0.5645359002519399,None,604757,001,2023-10-09_14h53.34.698,Sequential Learning,2023.1.3,59.92139517100053,
50,c,,,,,6,3,27,2,,,,,,,,,,,,,554.9562476999126,555.939516399987,555.939516399987,555.939516399987,555.939516399987,555.9545026000123,556.9545425998513,556.9545425998513,c,1,0.8526769001036882,None,604757,001,2023-10-09_14h53.34.698,Sequential Learning,2023.1.3,59.92139517100053,
150,v,,,,,7,0,28,1,,,,,,,,,,,,,557.8392055998556,558.8232855999377,558.8232855999377,558.8232855999377,558.8232855999377,558.8378606999759,559.8379685999826,559.8379685999826,v,1,0.4526792000979185,None,604757,001,2023-10-09_14h53.34.698,Sequential Learning,2023.1.3,59.92139517100053,
-150,z,,,,,7,1,29,3,,,,,,,,,,,,,560.3224408000242,561.3059828998521,561.3059828998521,561.3059828998521,561.3059828998521,561.3209754999261,562.3207435999066,562.3207435999066,z,1,0.5030299001373351,None,604757,001,2023-10-09_14h53.34.698,Sequential Learning,2023.1.3,59.92139517100053,
-50,x,,,,,7,2,30,0,,,,,,,,,,,,,562.8556607000064,563.8390185998287,563.8390185998287,563.8390185998287,563.8390185998287,563.8542382000014,564.8539185998961,564.8539185998961,x,1,0.6490619999822229,None,604757,001,2023-10-09_14h53.34.698,Sequential Learning,2023.1.3,59.92139517100053,
50,c,,,,,7,3,31,2,,,,,,,,,,,,,565.5221575999167,566.5056551999878,566.5056551999878,566.5056551999878,566.5056551999878,566.520767999813,567.5204586000182,567.5204586000182,c,1,0.5696501000784338,None,604757,001,2023-10-09_14h53.34.698,Sequential Learning,2023.1.3,59.92139517100053,
-50,x,,,,,8,0,32,0,,,,,,,,,,,,,568.1220241999254,569.1054838998243,569.1054838998243,569.1054838998243,569.1054838998243,569.1205273999367,570.1206280998886,570.1206280998886,x,1,0.6237219001632184,None,604757,001,2023-10-09_14h53.34.698,Sequential Learning,2023.1.3,59.92139517100053,
-50,x,,,,,8,1,33,0,,,,,,,,,,,,,570.7720002999995,571.7554271998815,571.7554271998815,571.7554271998815,571.7554271998815,571.7704023998231,572.770356999943,572.770356999943,x,1,0.36004470009356737,None,604757,001,2023-10-09_14h53.34.698,Sequential Learning,2023.1.3,59.92139517100053,
50,c,,,,,8,2,34,2,,,,,,,,,,,,,573.1551975999027,574.1386402999051,574.1386402999051,574.1386402999051,574.1386402999051,574.1534804999828,575.153734699823,575.153734699823,c,1,0.6034676001872867,None,604757,001,2023-10-09_14h53.34.698,Sequential Learning,2023.1.3,59.92139517100053,
-50,x,,,,,8,3,35,0,,,,,,,,,,,,,575.7885946999304,576.7870834998321,576.7870834998321,576.7870834998321,576.7870834998321,576.7870834998321,577.7866434999742,577.7866434999742,x,1,0.5378248000051826,None,604757,001,2023-10-09_14h53.34.698,Sequential Learning,2023.1.3,59.92139517100053,
-150,z,,,,,9,0,36,3,,,,,,,,,,,,,578.3548387000337,579.3381684999913,579.3381684999913,579.3381684999913,579.3381684999913,579.353255199967,580.3532453998923,580.3532453998923,z,1,0.4495239001698792,None,604757,001,2023-10-09_14h53.34.698,Sequential Learning,2023.1.3,59.92139517100053,
-150,z,,,,,9,1,37,3,,,,,,,,,,,,,580.8215210998897,581.8047072999179,581.8047072999179,581.8047072999179,581.8047072999179,581.8199248998426,582.8200182998553,582.8200182998553,z,1,0.48223210009746253,None,604757,001,2023-10-09_14h53.34.698,Sequential Learning,2023.1.3,59.92139517100053,
50,c,,,,,9,2,38,2,,,,,,,,,,,,,583.3216079999693,584.3047988999169,584.3047988999169,584.3047988999169,584.3047988999169,584.3198420000263,585.3196700999979,585.3196700999979,c,1,0.6995264999568462,None,604757,001,2023-10-09_14h53.34.698,Sequential Learning,2023.1.3,59.92139517100053,
-50,x,,,,,9,3,39,0,,,,,,,,,,,,,586.0379255998414,587.0214992999099,587.0214992999099,587.0214992999099,587.0214992999099,587.0363775000442,588.0365523998626,588.0365523998626,x,1,0.7260132001247257,None,604757,001,2023-10-09_14h53.34.698,Sequential Learning,2023.1.3,59.92139517100053,
50,c,,,,,10,0,40,2,,,,,,,,,,,,,588.7877545999363,589.7715686999727,589.7715686999727,589.7715686999727,589.7715686999727,589.7863083998673,590.7861112998798,590.7861112998798,c,1,0.5456499001011252,None,604757,001,2023-10-09_14h53.34.698,Sequential Learning,2023.1.3,59.92139517100053,
50,c,,,,,10,1,41,2,,,,,,,,,,,,,591.3543844998349,592.3377989998553,592.3377989998553,592.3377989998553,592.3377989998553,592.3527175998315,593.3525729000103,593.3525729000103,c,1,0.4455748002510518,None,604757,001,2023-10-09_14h53.34.698,Sequential Learning,2023.1.3,59.92139517100053,
150,v,,,,,10,2,42,1,,,,,,,,,,,,,593.8209269999061,594.8042528999504,594.8042528999504,594.8042528999504,594.8042528999504,594.8194565998856,595.8194213998504,595.8194213998504,v,1,0.36127140023745596,None,604757,001,2023-10-09_14h53.34.698,Sequential Learning,2023.1.3,59.92139517100053,
-150,z,,,,,10,3,43,3,,,,,,,,,,,,,596.2042765999213,597.2024611998349,597.2024611998349,597.2024611998349,597.2024611998349,597.2024611998349,598.202557799872,598.202557799872,z,1,0.42031960003077984,None,604757,001,2023-10-09_14h53.34.698,Sequential Learning,2023.1.3,59.92139517100053,
50,c,,,,,11,0,44,2,,,,,,,,,,,,,598.6537921000272,599.6374852999579,599.6374852999579,599.6374852999579,599.6374852999579,599.6523370000068,600.6523502999917,600.6523502999917,c,1,0.6681720002088696,None,604757,001,2023-10-09_14h53.34.698,Sequential Learning,2023.1.3,59.92139517100053,
-150,z,,,,,11,1,45,3,,,,,,,,,,,,,601.3540317998268,602.3373552998528,602.3373552998528,602.3373552998528,602.3373552998528,602.3522912999615,603.3522431999445,603.3522431999445,z,1,0.620737100020051,None,604757,001,2023-10-09_14h53.34.698,Sequential Learning,2023.1.3,59.92139517100053,
150,v,,,,,11,2,46,1,,,,,,,,,,,,,604.0037916998845,604.9869631000329,604.9869631000329,604.9869631000329,604.9869631000329,605.0021879000124,606.00204689987,606.00204689987,v,1,0.384470600169152,None,604757,001,2023-10-09_14h53.34.698,Sequential Learning,2023.1.3,59.92139517100053,
50,c,,,,,11,3,47,2,,,,,,,,,,,,,606.4203645999078,607.4038113998249,607.4038113998249,607.4038113998249,607.4038113998249,607.4187604000326,608.4186207000166,608.4186207000166,c,1,0.505991900106892,None,604757,001,2023-10-09_14h53.34.698,Sequential Learning,2023.1.3,59.92139517100053,
50,c,,,,,12,0,48,2,,,,,,,,,,,,,608.9535316999536,609.9521194999106,609.9521194999106,609.9521194999106,609.9521194999106,609.9521194999106,610.9519007999916,610.9519007999916,c,1,0.4158220002427697,None,604757,001,2023-10-09_14h53.34.698,Sequential Learning,2023.1.3,59.92139517100053,
150,v,,,,,12,1,49,1,,,,,,,,,,,,,611.3869222998619,612.3702163000125,612.3702163000125,612.3702163000125,612.3702163000125,612.3853867999278,613.384996799985,613.384996799985,v,1,0.3647776001598686,None,604757,001,2023-10-09_14h53.34.698,Sequential Learning,2023.1.3,59.92139517100053,
-150,z,,,,,12,2,50,3,,,,,,,,,,,,,613.7700342999306,614.7533253999427,614.7533253999427,614.7533253999427,614.7533253999427,614.7686655998696,615.7682113999035,615.7682113999035,z,1,0.4747929002624005,None,604757,001,2023-10-09_14h53.34.698,Sequential Learning,2023.1.3,59.92139517100053,
-50,x,,,,,12,3,51,0,,,,,,,,,,,,,616.2699833000079,617.2531697000377,617.2531697000377,617.2531697000377,617.2531697000377,617.2680921000428,618.268359699985,618.268359699985,x,1,0.7516978001222014,None,604757,001,2023-10-09_14h53.34.698,Sequential Learning,2023.1.3,59.92139517100053,
-50,x,,,,,13,0,52,0,,,,,,,,,,,,,619.0530228000134,620.0363982999697,620.0363982999697,620.0363982999697,620.0363982999697,620.0513228999916,621.0513528999873,621.0513528999873,x,1,0.8164961999282241,None,604757,001,2023-10-09_14h53.34.698,Sequential Learning,2023.1.3,59.92139517100053,
150,v,,,,,13,1,53,1,,,,,,,,,,,,,621.8861721998546,622.8697550999932,622.8697550999932,622.8697550999932,622.8697550999932,622.8847719000187,623.8848808999173,623.8848808999173,v,1,0.44622760033234954,None,604757,001,2023-10-09_14h53.34.698,Sequential Learning,2023.1.3,59.92139517100053,
-50,x,,,,,13,2,54,0,,,,,,,,,,,,,624.3529007998295,625.3363439999521,625.3363439999521,625.3363439999521,625.3363439999521,625.3514374999795,626.3510045998264,626.3510045998264,x,1,1.5579538999591023,None,604757,001,2023-10-09_14h53.34.698,Sequential Learning,2023.1.3,59.92139517100053,
-150,z,,,,,13,3,55,3,,,,,,,,,,,,,627.936214099871,628.919473499991,628.919473499991,628.919473499991,628.919473499991,628.9341757998336,629.9342676999513,629.9342676999513,z,1,0.4922539002727717,None,604757,001,2023-10-09_14h53.34.698,Sequential Learning,2023.1.3,59.92139517100053,
-150,z,,,,,14,0,56,3,,,,,,,,,,,,,630.4526724999305,631.4355813998263,631.4355813998263,631.4355813998263,631.4355813998263,631.4509129999205,632.4509433999192,632.4509433999192,z,1,0.6677995002828538,None,604757,001,2023-10-09_14h53.34.698,Sequential Learning,2023.1.3,59.92139517100053,
-50,x,,,,,14,1,57,0,,,,,,,,,,,,,633.1526065999642,634.150902000023,634.150902000023,634.150902000023,634.150902000023,634.150902000023,635.1506852998864,635.1506852998864,x,1,0.8673900000285357,None,604757,001,2023-10-09_14h53.34.698,Sequential Learning,2023.1.3,59.92139517100053,
150,v,,,,,14,2,58,1,,,,,,,,,,,,,636.0523300999776,637.0357061999384,637.0357061999384,637.0357061999384,637.0357061999384,637.050806999905,638.0505500000436,638.0505500000436,v,1,0.7593285001348704,None,604757,001,2023-10-09_14h53.34.698,Sequential Learning,2023.1.3,59.92139517100053,
-150,z,,,,,14,3,59,3,,,,,,,,,,,,,638.8352721999399,639.8340490998235,639.8340490998235,639.8340490998235,639.8340490998235,639.8340490998235,640.8338392998558,640.8338392998558,z,1,0.7651733001694083,None,604757,001,2023-10-09_14h53.34.698,Sequential Learning,2023.1.3,59.92139517100053,
150,v,,,,,15,0,60,1,,,,,,,,,,,,,641.618761499878,642.6170884999447,642.6170884999447,642.6170884999447,642.6170884999447,642.6170884999447,643.6170689999126,643.6170689999126,v,1,0.4649640000425279,None,604757,001,2023-10-09_14h53.34.698,Sequential Learning,2023.1.3,59.92139517100053,
150,v,,,,,15,1,61,1,,,,,,,,,,,,,644.1019649000373,645.1005007999483,645.1005007999483,645.1005007999483,645.1005007999483,645.1005007999483,646.1002491998952,646.1002491998952,v,1,0.40430309996008873,None,604757,001,2023-10-09_14h53.34.698,Sequential Learning,2023.1.3,59.92139517100053,
-150,z,,,,,15,2,62,3,,,,,,,,,,,,,646.5349993000273,647.5185709998477,647.5185709998477,647.5185709998477,647.5185709998477,647.5334016999695,648.5334844000172,648.5334844000172,z,1,0.47374480008147657,None,604757,001,2023-10-09_14h53.34.698,Sequential Learning,2023.1.3,59.92139517100053,
50,c,,,,,15,3,63,2,,,,,,,,,,,,,649.0350389999803,650.018279899843,650.018279899843,650.018279899843,650.018279899843,650.0332791998517,651.0333127998747,651.0333127998747,c,1,0.593482700176537,None,604757,001,2023-10-09_14h53.34.698,Sequential Learning,2023.1.3,59.92139517100053,
-150,z,,,,,16,0,64,3,,,,,,,,,,,,,651.6514655000065,652.6348700998351,652.6348700998351,652.6348700998351,652.6348700998351,652.6500313000288,653.6499422998168,653.6499422998168,z,1,0.7580353000666946,None,604757,001,2023-10-09_14h53.34.698,Sequential Learning,2023.1.3,59.92139517100053,
-150,z,,,,,16,1,65,3,,,,,,,,,,,,,654.434555699816,655.4179473000113,655.4179473000113,655.4179473000113,655.4179473000113,655.4331284998916,656.4329605998937,656.4329605998937,z,1,0.42894090013578534,None,604757,001,2023-10-09_14h53.34.698,Sequential Learning,2023.1.3,59.92139517100053,
-150,z,,,,,16,2,66,3,,,,,,,,,,,,,656.8846855999436,657.8828865999822,657.8828865999822,657.8828865999822,657.8828865999822,657.8828865999822,658.8828077998478,658.8828077998478,z,1,0.9618128999136388,None,604757,001,2023-10-09_14h53.34.698,Sequential Learning,2023.1.3,59.92139517100053,
-50,x,,,,,16,3,67,0,,,,,,,,,,,,,659.8675932998303,660.8512460000347,660.8512460000347,660.8512460000347,660.8512460000347,660.8664078998845,661.8661507000215,661.8661507000215,x,1,1.2664922000840306,None,604757,001,2023-10-09_14h53.34.698,Sequential Learning,2023.1.3,59.92139517100053,
50,c,,,,,17,0,68,2,,,,,,,,,,,,,663.1509578998666,664.1344365000259,664.1344365000259,664.1344365000259,664.1344365000259,664.1494016998913,665.1493043999653,665.1493043999653,c,1,0.7455079001374543,None,604757,001,2023-10-09_14h53.34.698,Sequential Learning,2023.1.3,59.92139517100053,
50,c,,,,,17,1,69,2,,,,,,,,,,,,,665.9177963000257,666.9010893998202,666.9010893998202,666.9010893998202,666.9010893998202,666.9159744000062,667.9157888998743,667.9157888998743,c,1,0.6219013000372797,None,604757,001,2023-10-09_14h53.34.698,Sequential Learning,2023.1.3,59.92139517100053,
50,c,,,,,17,2,70,2,,,,,,,,,,,,,668.5674482998438,669.5507741000038,669.5507741000038,669.5507741000038,669.5507741000038,669.5655934000388,670.5656864999328,670.5656864999328,c,1,1.0448441000189632,None,604757,001,2023-10-09_14h53.34.698,Sequential Learning,2023.1.3,59.92139517100053,
50,c,,,,,17,3,71,2,,,,,,,,,,,,,671.6341491998173,672.6327117998153,672.6327117998153,672.6327117998153,672.6327117998153,672.6327117998153,673.6323106999043,673.6323106999043,c,1,0.3608720002230257,None,604757,001,2023-10-09_14h53.34.698,Sequential Learning,2023.1.3,59.92139517100053,
-150,z,,,,,18,0,72,3,,,,,,,,,,,,,674.0171216998715,675.0009237998165,675.0009237998165,675.0009237998165,675.0009237998165,675.0156004999299,676.015582999913,676.015582999913,z,1,0.56647550011985,None,604757,001,2023-10-09_14h53.34.698,Sequential Learning,2023.1.3,59.92139517100053,
-50,x,,,,,18,1,73,0,,,,,,,,,,,,,676.6010045998264,677.598915599985,677.598915599985,677.598915599985,677.598915599985,677.598915599985,678.5987455998547,678.5987455998547,x,1,0.6861220002174377,None,604757,001,2023-10-09_14h53.34.698,Sequential Learning,2023.1.3,59.92139517100053,
-50,x,,,,,18,2,74,0,,,,,,,,,,,,,679.3176094999071,680.3001794999,680.3001794999,680.3001794999,680.3001794999,680.3152450998314,681.3152011998463,681.3152011998463,x,1,0.3483849000185728,None,604757,001,2023-10-09_14h53.34.698,Sequential Learning,2023.1.3,59.92139517100053,
-150,z,,,,,18,3,75,3,,,,,,,,,,,,,681.6835043998435,682.6666428998578,682.6666428998578,682.6666428998578,682.6666428998578,682.6818264999893,683.6819519998971,683.6819519998971,z,1,0.638808999909088,None,604757,001,2023-10-09_14h53.34.698,Sequential Learning,2023.1.3,59.92139517100053,
-150,z,,,,,19,0,76,3,,,,,,,,,,,,,684.3500683999155,685.3486547998618,685.3486547998618,685.3486547998618,685.3486547998618,685.3486547998618,686.3483166999649,686.3483166999649,z,1,0.755826200125739,None,604757,001,2023-10-09_14h53.34.698,Sequential Learning,2023.1.3,59.92139517100053,
150,v,,,,,19,1,77,1,,,,,,,,,,,,,687.1329927998595,688.1315040998161,688.1315040998161,688.1315040998161,688.1315040998161,688.1315040998161,689.131414799951,689.131414799951,v,1,0.7356022999156266,None,604757,001,2023-10-09_14h53.34.698,Sequential Learning,2023.1.3,59.92139517100053,
150,v,,,,,19,2,78,1,,,,,,,,,,,,,689.8996925998945,690.8833719999529,690.8833719999529,690.8833719999529,690.8833719999529,690.8981168000028,691.8981265998445,691.8981265998445,v,1,0.5669961001258343,None,604757,001,2023-10-09_14h53.34.698,Sequential Learning,2023.1.3,59.92139517100053,
50,c,,,,,19,3,79,2,,,,,,,,,,,,,692.4994439999573,693.4830575999804,693.4830575999804,693.4830575999804,693.4830575999804,693.4978376999497,694.4980303000193,694.4980303000193,c,1,0.6047951001673937,None,604757,001,2023-10-09_14h53.34.698,Sequential Learning,2023.1.3,59.92139517100053,
-150,z,,,,,20,0,80,3,,,,,,,,,,,,,695.1328063998371,696.116073000012,696.116073000012,696.116073000012,696.116073000012,696.1311667999253,697.1310912999325,697.1310912999325,z,1,0.4455265002325177,None,604757,001,2023-10-09_14h53.34.698,Sequential Learning,2023.1.3,59.92139517100053,
150,v,,,,,20,1,81,1,,,,,,,,,,,,,697.5994068998843,698.5826695000287,698.5826695000287,698.5826695000287,698.5826695000287,698.5977856998798,699.5977508998476,699.5977508998476,v,1,0.47754980018362403,None,604757,001,2023-10-09_14h53.34.698,Sequential Learning,2023.1.3,59.92139517100053,
50,c,,,,,20,2,82,2,,,,,,,,,,,,,700.0990777998231,701.0824922998436,701.0824922998436,701.0824922998436,701.0824922998436,701.0976070999168,702.0977835999802,702.0977835999802,c,1,0.8728790001478046,None,604757,001,2023-10-09_14h53.34.698,Sequential Learning,2023.1.3,59.92139517100053,
-50,x,,,,,20,3,83,0,,,,,,,,,,,,,702.9989707998466,703.9829682998825,703.9829682998825,703.9829682998825,703.9829682998825,703.9974225999322,704.9974245999474,704.9974245999474,x,1,1.1249020001851022,None,604757,001,2023-10-09_14h53.34.698,Sequential Learning,2023.1.3,59.92139517100053,
-150,z,,,,,21,0,84,3,,,,,,,,,,,,,706.1490627999883,707.1473321998492,707.1473321998492,707.1473321998492,707.1473321998492,707.1473321998492,708.1472910998855,708.1472910998855,z,1,0.9356039001140743,None,604757,001,2023-10-09_14h53.34.698,Sequential Learning,2023.1.3,59.92139517100053,
50,c,,,,,21,1,85,2,,,,,,,,,,,,,709.115287899971,710.0988721000031,710.0988721000031,710.0988721000031,710.0988721000031,710.1139850998297,711.1136514998507,711.1136514998507,c,1,0.48790150019340217,None,604757,001,2023-10-09_14h53.34.698,Sequential Learning,2023.1.3,59.92139517100053,
-150,z,,,,,21,2,86,3,,,,,,,,,,,,,711.6318214999046,712.6155570999254,712.6155570999254,712.6155570999254,712.6155570999254,712.6305468999781,713.6304564999882,713.6304564999882,z,1,0.599772100104019,None,604757,001,2023-10-09_14h53.34.698,Sequential Learning,2023.1.3,59.92139517100053,
-50,x,,,,,21,3,87,0,,,,,,,,,,,,,714.2484523998573,715.2320309998468,715.2320309998468,715.2320309998468,715.2320309998468,715.247120999964,716.2473030998372,716.2473030998372,x,1,0.9499917002394795,None,604757,001,2023-10-09_14h53.34.698,Sequential Learning,2023.1.3,59.92139517100053,
150,v,,,,,22,0,88,1,,,,,,,,,,,,,717.2316842,718.2152174999937,718.2152174999937,718.2152174999937,718.2152174999937,718.2301179999486,719.2301248998847,719.2301248998847,v,1,2.4100023999344558,None,604757,001,2023-10-09_14h53.34.698,Sequential Learning,2023.1.3,59.92139517100053,
-50,x,,,,,22,1,89,0,,,,,,,,,,,,,721.6649332998786,722.6482855000068,722.6482855000068,722.6482855000068,722.6482855000068,722.6632734998129,723.6632816998754,723.6632816998754,x,1,0.6667417001444846,None,604757,001,2023-10-09_14h53.34.698,Sequential Learning,2023.1.3,59.92139517100053,
-50,x,,,,,22,2,90,0,,,,,,,,,,,,,724.3480823999271,725.3465835000388,725.3465835000388,725.3465835000388,725.3465835000388,725.3465835000388,726.3464092998765,726.3464092998765,x,1,0.4671728000976145,None,604757,001,2023-10-09_14h53.34.698,Sequential Learning,2023.1.3,59.92139517100053,
-50,x,,,,,22,3,91,0,,,,,,,,,,,,,726.8314918999095,727.8298070998862,727.8298070998862,727.8298070998862,727.8298070998862,727.8298070998862,728.829592499882,728.829592499882,x,1,0.32996060024015605,None,604757,001,2023-10-09_14h53.34.698,Sequential Learning,2023.1.3,59.92139517100053,
150,v,,,,,23,0,92,1,,,,,,,,,,,,,729.1811518999748,730.1643307998311,730.1643307998311,730.1643307998311,730.1643307998311,730.1795518000145,731.179514599964,731.179514599964,v,1,0.3787158001214266,None,604757,001,2023-10-09_14h53.34.698,Sequential Learning,2023.1.3,59.92139517100053,
50,c,,,,,23,1,93,2,,,,,,,,,,,,,731.5811945998576,732.5645865998231,732.5645865998231,732.5645865998231,732.5645865998231,732.5794236999936,733.5793854999356,733.5793854999356,c,1,0.7504775002598763,None,604757,001,2023-10-09_14h53.34.698,Sequential Learning,2023.1.3,59.92139517100053,
-50,x,,,,,23,2,94,0,,,,,,,,,,,,,734.3642770999577,735.3477268998977,735.3477268998977,735.3477268998977,735.3477268998977,735.3630246999674,736.3627454999369,736.3627454999369,x,1,0.4974783002398908,None,604757,001,2023-10-09_14h53.34.698,Sequential Learning,2023.1.3,59.92139517100053,
-50,x,,,,,23,3,95,0,,,,,,,,,,,,,736.8809551999439,737.8644661998842,737.8644661998842,737.8644661998842,737.8644661998842,737.8792079000268,738.8790892998222,738.8790892998222,x,1,1.337704900186509,None,604757,001,2023-10-09_14h53.34.698,Sequential Learning,2023.1.3,59.92139517100053,
150,v,,,,,24,0,96,1,,,,,,,,,,,,,740.2473375999834,741.2456932999194,741.2456932999194,741.2456932999194,741.2456932999194,741.2456932999194,742.2456349998247,742.2456349998247,v,1,0.7452037001494318,None,604757,001,2023-10-09_14h53.34.698,Sequential Learning,2023.1.3,59.92139517100053,
-150,z,,,,,24,1,97,3,,,,,,,,,,,,,743.0139217998367,743.9974225999322,743.9974225999322,743.9974225999322,743.9974225999322,744.012318899855,745.0122277999762,745.0122277999762,z,1,0.9990652003325522,None,604757,001,2023-10-09_14h53.34.698,Sequential Learning,2023.1.3,59.92139517100053,
50,c,,,,,24,2,98,2,,,,,,,,,,,,,746.0303460999858,747.0289739998989,747.0289739998989,747.0289739998989,747.0289739998989,747.0289739998989,748.0287490999326,748.0287490999326,c,1,0.6598943001590669,None,604757,001,2023-10-09_14h53.34.698,Sequential Learning,2023.1.3,59.92139517100053,
50,c,,,,,24,3,99,2,,,,,,,,,,,,,748.7137346998788,749.6970619999338,749.6970619999338,749.6970619999338,749.6970619999338,749.7119807000272,750.711850799853,750.711850799853,c,1,1.26886359998025,None,604757,001,2023-10-09_14h53.34.698,Sequential Learning,2023.1.3,59.92139517100053,
150,v,,,,,25,0,100,1,,,,,,,,,,,,,752.0135472000111,752.9969180999324,752.9969180999324,752.9969180999324,752.9969180999324,753.0119180998299,754.0119939998258,754.0119939998258,v,1,0.7421881000045687,None,604757,001,2023-10-09_14h53.34.698,Sequential Learning,2023.1.3,59.92139517100053,
50,c,,,,,25,1,101,2,,,,,,,,,,,,,754.7799197998829,755.7631798998918,755.7631798998918,755.7631798998918,755.7631798998918,755.7782395000104,756.7781978999265,756.7781978999265,c,1,0.8786315000616014,None,604757,001,2023-10-09_14h53.34.698,Sequential Learning,2023.1.3,59.92139517100053,
150,v,,,,,25,2,102,1,,,,,,,,,,,,,757.6798995998688,758.6632022999693,758.6632022999693,758.6632022999693,758.6632022999693,758.6781105999835,759.6781152000185,759.6781152000185,v,1,0.7566006002016366,None,604757,001,2023-10-09_14h53.34.698,Sequential Learning,2023.1.3,59.92139517100053,
-150,z,,,,,25,3,103,3,,,,,,,,,,,,,760.4629454000387,761.4613943998702,761.4613943998702,761.4613943998702,761.4613943998702,761.4613943998702,762.4614176999312,762.4614176999312,z,1,0.6518908001016825,None,604757,001,2023-10-09_14h53.34.698,Sequential Learning,2023.1.3,59.92139517100053,
50,c,,,,,26,0,104,2,,,,,,,,,,,,,763.1462948999833,764.1295510998461,764.1295510998461,764.1295510998461,764.1295510998461,764.1446028999053,765.144625299843,765.144625299843,c,1,0.6366024999879301,None,604757,001,2023-10-09_14h53.34.698,Sequential Learning,2023.1.3,59.92139517100053,
150,v,,,,,26,1,105,1,,,,,,,,,,,,,765.8130196998827,766.8111731999088,766.8111731999088,766.8111731999088,766.8111731999088,766.8111731999088,767.8110950998962,767.8110950998962,v,1,0.7377981001045555,None,604757,001,2023-10-09_14h53.34.698,Sequential Learning,2023.1.3,59.92139517100053,
-150,z,,,,,26,2,106,3,,,,,,,,,,,,,768.5794450000394,769.5628496999852,769.5628496999852,769.5628496999852,769.5628496999852,769.5778105999343,770.577676499961,770.577676499961,z,1,1.1896628001704812,None,604757,001,2023-10-09_14h53.34.698,Sequential Learning,2023.1.3,59.92139517100053,
-50,x,,,,,26,3,107,0,,,,,,,,,,,,,771.7958513998892,772.7793657998554,772.7793657998554,772.7793657998554,772.7793657998554,772.7943201998714,773.7941477999557,773.7941477999557,x,1,1.430887200171128,None,604757,001,2023-10-09_14h53.34.698,Sequential Learning,2023.1.3,59.92139517100053,
150,v,,,,,27,0,108,1,,,,,,,,,,,,,775.2457589998376,776.2291961999144,776.2291961999144,776.2291961999144,776.2291961999144,776.2439957999159,777.2441044000443,777.2441044000443,v,1,0.9698958001099527,None,604757,001,2023-10-09_14h53.34.698,Sequential Learning,2023.1.3,59.92139517100053,
50,c,,,,,27,1,109,2,,,,,,,,,,,,,778.2454346998129,779.2287959998939,779.2287959998939,779.2287959998939,779.2287959998939,779.2439166998956,780.243909599958,780.243909599958,c,1,1.6668797999154776,None,604757,001,2023-10-09_14h53.34.698,Sequential Learning,2023.1.3,59.92139517100053,
-50,x,,,,,27,2,110,0,,,,,,,,,,,,,781.9452706999145,782.9285952998325,782.9285952998325,782.9285952998325,782.9285952998325,782.9438598998822,783.9437893999275,783.9437893999275,x,1,0.7501460001803935,None,604757,001,2023-10-09_14h53.34.698,Sequential Learning,2023.1.3,59.92139517100053,
150,v,,,,,27,3,111,1,,,,,,,,,,,,,784.7120047998615,785.6952606998384,785.6952606998384,785.6952606998384,785.6952606998384,785.7101384999696,786.7100789998658,786.7100789998658,v,1,0.8062096000649035,None,604757,001,2023-10-09_14h53.34.698,Sequential Learning,2023.1.3,59.92139517100053,
150,v,,,,,28,0,112,1,,,,,,,,,,,,,787.5451855999418,788.5434858000372,788.5434858000372,788.5434858000372,788.5434858000372,788.5434858000372,789.5434584999457,789.5434584999457,v,1,0.570849500130862,None,604757,001,2023-10-09_14h53.34.698,Sequential Learning,2023.1.3,59.92139517100053,
50,c,,,,,28,1,113,2,,,,,,,,,,,,,790.1449921999592,791.1284000000451,791.1284000000451,791.1284000000451,791.1284000000451,791.1434261999093,792.1432916999329,792.1432916999329,c,1,0.8156477001029998,None,604757,001,2023-10-09_14h53.34.698,Sequential Learning,2023.1.3,59.92139517100053,
-50,x,,,,,28,2,114,0,,,,,,,,,,,,,792.9781966998708,793.9765302999876,793.9765302999876,793.9765302999876,793.9765302999876,793.9765302999876,794.9765442998614,794.9765442998614,x,1,0.6793694002553821,None,604757,001,2023-10-09_14h53.34.698,Sequential Learning,2023.1.3,59.92139517100053,
-50,x,,,,,28,3,115,0,,,,,,,,,,,,,795.6778511998709,796.6615742000286,796.6615742000286,796.6615742000286,796.6615742000286,796.6765287998132,797.6764412999619,797.6764412999619,x,1,0.36796250008046627,None,604757,001,2023-10-09_14h53.34.698,Sequential Learning,2023.1.3,59.92139517100053,
150,v,,,,,29,0,116,1,,,,,,,,,,,,,798.0779762000311,799.0764572999906,799.0764572999906,799.0764572999906,799.0764572999906,799.0764572999906,800.0763230999,800.0763230999,v,1,0.4458529001567513,None,604757,001,2023-10-09_14h53.34.698,Sequential Learning,2023.1.3,59.92139517100053,
50,c,,,,,29,1,117,2,,,,,,,,,,,,,800.5444008000195,801.5276708998717,801.5276708998717,801.5276708998717,801.5276708998717,801.5428851998877,802.5428197998554,802.5428197998554,c,1,0.7135083002503961,None,604757,001,2023-10-09_14h53.34.698,Sequential Learning,2023.1.3,59.92139517100053,
-150,z,,,,,29,2,118,3,,,,,,,,,,,,,803.2776239998639,804.276037799893,804.276037799893,804.276037799893,804.276037799893,804.276037799893,805.2759845999535,805.2759845999535,z,1,0.5184117001481354,None,604757,001,2023-10-09_14h53.34.698,Sequential Learning,2023.1.3,59.92139517100053,
-50,x,,,,,29,3,119,0,,,,,,,,,,,,,805.8276000998449,806.8112718998455,806.8112718998455,806.8112718998455,806.8112718998455,806.8259369998705,807.8260347000323,807.8260347000323,x,1,0.5412912000901997,None,604757,001,2023-10-09_14h53.34.698,Sequential Learning,2023.1.3,59.92139517100053,
-150,z,,,,,30,0,120,3,,,,,,,,,,,,,808.3942036998924,809.37738239998,809.37738239998,809.37738239998,809.37738239998,809.3924805000424,810.3923458999489,810.3923458999489,z,1,0.6628567001316696,None,604757,001,2023-10-09_14h53.34.698,Sequential Learning,2023.1.3,59.92139517100053,
150,v,,,,,30,1,121,1,,,,,,,,,,,,,811.077278799843,812.0613575000316,812.0613575000316,812.0613575000316,812.0613575000316,812.075725399889,813.0757412998937,813.0757412998937,v,1,0.8224149001762271,None,604757,001,2023-10-09_14h53.34.698,Sequential Learning,2023.1.3,59.92139517100053,
50,c,,,,,30,2,122,2,,,,,,,,,,,,,813.9272669998463,814.9254743999336,814.9254743999336,814.9254743999336,814.9254743999336,814.9254743999336,815.9255786000285,815.9255786000285,c,1,0.8621110999956727,None,604757,001,2023-10-09_14h53.34.698,Sequential Learning,2023.1.3,59.92139517100053,
-150,z,,,,,30,3,123,3,,,,,,,,,,,,,816.8104295998346,817.8087273000274,817.8087273000274,817.8087273000274,817.8087273000274,817.8087273000274,818.8086921998765,818.8086921998765,z,1,0.5809799002017826,None,604757,001,2023-10-09_14h53.34.698,Sequential Learning,2023.1.3,59.92139517100053,
-50,x,,,,,31,0,124,0,,,,,,,,,,,,,819.4102086999919,820.3938330998644,820.3938330998644,820.3938330998644,820.3938330998644,820.4086988000199,821.4086115998216,821.4086115998216,x,1,0.7161327002104372,None,604757,001,2023-10-09_14h53.34.698,Sequential Learning,2023.1.3,59.92139517100053,
-50,x,,,,,31,1,125,0,,,,,,,,,,,,,822.1437470000237,823.1420752999838,823.1420752999838,823.1420752999838,823.1420752999838,823.1420752999838,824.1418003998697,824.1418003998697,x,1,0.5867000001017004,None,604757,001,2023-10-09_14h53.34.698,Sequential Learning,2023.1.3,59.92139517100053,
-150,z,,,,,31,2,126,3,,,,,,,,,,,,,824.7601773999631,825.7585454999935,825.7585454999935,825.7585454999935,825.7585454999935,825.7585454999935,826.7583548999391,826.7583548999391,z,1,0.593925200169906,None,604757,001,2023-10-09_14h53.34.698,Sequential Learning,2023.1.3,59.92139517100053,
150,v,,,,,31,3,127,1,,,,,,,,,,,,,827.3765587999951,828.3750870998483,828.3750870998483,828.3750870998483,828.3750870998483,828.3750870998483,829.3750099998433,829.3750099998433,v,1,0.6052955000195652,None,604757,001,2023-10-09_14h53.34.698,Sequential Learning,2023.1.3,59.92139517100053,
-50,x,,,,,32,0,128,0,,,,,,,,,,,,,830.0099229000043,831.0083707999438,831.0083707999438,831.0083707999438,831.0083707999438,831.0083707999438,832.0081945999991,832.0081945999991,x,1,0.31476020021364093,None,604757,001,2023-10-09_14h53.34.698,Sequential Learning,2023.1.3,59.92139517100053,
150,v,,,,,32,1,129,1,,,,,,,,,,,,,832.3428827000316,833.3263487999793,833.3263487999793,833.3263487999793,833.3263487999793,833.3414004999213,834.3412136000115,834.3412136000115,v,1,0.5900705002713948,None,604757,001,2023-10-09_14h53.34.698,Sequential Learning,2023.1.3,59.92139517100053,
150,v,,,,,32,2,130,1,,,,,,,,,,,,,834.9595200000331,835.9429923999123,835.9429923999123,835.9429923999123,835.9429923999123,835.9579503999557,836.958227599971,836.958227599971,v,1,0.6264333000872284,None,604757,001,2023-10-09_14h53.34.698,Sequential Learning,2023.1.3,59.92139517100053,
150,v,,,,,32,3,131,1,,,,,,,,,,,,,837.6094666998833,838.5927414000034,838.5927414000034,838.5927414000034,838.5927414000034,838.6076994999312,839.6077876999043,839.6077876999043,v,1,0.418652200140059,None,604757,001,2023-10-09_14h53.34.698,Sequential Learning,2023.1.3,59.92139517100053,
150,v,,,,,33,0,132,1,,,,,,,,,,,,,840.0595780999865,841.0578912999481,841.0578912999481,841.0578912999481,841.0578912999481,841.0578912999481,842.0576013999525,842.0576013999525,v,1,0.6081347002182156,None,604757,001,2023-10-09_14h53.34.698,Sequential Learning,2023.1.3,59.92139517100053,
-150,z,,,,,33,1,133,3,,,,,,,,,,,,,842.692339599831,843.6910537998192,843.6910537998192,843.6910537998192,843.6910537998192,843.6910537998192,844.6909382999875,844.6909382999875,z,1,0.6336322000715882,None,604757,001,2023-10-09_14h53.34.698,Sequential Learning,2023.1.3,59.92139517100053,
-150,z,,,,,33,2,134,3,,,,,,,,,,,,,845.3424273999408,846.3408729999792,846.3408729999792,846.3408729999792,846.3408729999792,846.3408729999792,847.3406405998394,847.3406405998394,z,1,0.6618645000271499,None,604757,001,2023-10-09_14h53.34.698,Sequential Learning,2023.1.3,59.92139517100053,
150,v,,,,,33,3,135,1,,,,,,,,,,,,,848.0256568000186,849.0092442999594,849.0092442999594,849.0092442999594,849.0092442999594,849.0241882000118,850.0238008999731,850.0238008999731,v,1,0.5862621001433581,None,604757,001,2023-10-09_14h53.34.698,Sequential Learning,2023.1.3,59.92139517100053,
-150,z,,,,,34,0,136,3,,,,,,,,,,,,,850.6423286998179,851.6407698998228,851.6407698998228,851.6407698998228,851.6407698998228,851.6407698998228,852.6406290000305,852.6406290000305,z,1,0.8674756002146751,None,604757,001,2023-10-09_14h53.34.698,Sequential Learning,2023.1.3,59.92139517100053,
-50,x,,,,,34,1,137,0,,,,,,,,,,,,,853.5419993000105,854.5253854999319,854.5253854999319,854.5253854999319,854.5253854999319,854.5402995999902,855.5403181000147,855.5403181000147,x,1,0.7851322002243251,None,604757,001,2023-10-09_14h53.34.698,Sequential Learning,2023.1.3,59.92139517100053,
150,v,,,,,34,2,138,1,,,,,,,,,,,,,856.3585625998676,857.3417594998609,857.3417594998609,857.3417594998609,857.3417594998609,857.3569877999835,858.356780000031,858.356780000031,v,1,0.49357330007478595,None,604757,001,2023-10-09_14h53.34.698,Sequential Learning,2023.1.3,59.92139517100053,
-50,x,,,,,34,3,139,0,,,,,,,,,,,,,858.8750115998555,859.859114299994,859.859114299994,859.859114299994,859.859114299994,859.8736332999542,860.8734750000294,860.8734750000294,x,1,0.9285727001260966,None,604757,001,2023-10-09_14h53.34.698,Sequential Learning,2023.1.3,59.92139517100053,
-50,x,,,,,35,0,140,0,,,,,,,,,,,,,861.8248721999116,862.8083799998276,862.8083799998276,862.8083799998276,862.8083799998276,862.8235373999923,863.8232556998264,863.8232556998264,x,1,0.48171680024825037,None,604757,001,2023-10-09_14h53.34.698,Sequential Learning,2023.1.3,59.92139517100053,
150,v,,,,,35,1,141,1,,,,,,,,,,,,,864.3247712999582,865.3091033999808,865.3091033999808,865.3091033999808,865.3091033999808,865.3233202998526,866.3232680000365,866.3232680000365,v,1,0.5101340000983328,None,604757,001,2023-10-09_14h53.34.698,Sequential Learning,2023.1.3,59.92139517100053,
-50,x,,,,,35,2,142,0,,,,,,,,,,,,,866.8582053999417,867.8414961998351,867.8414961998351,867.8414961998351,867.8414961998351,867.8564943999518,868.8566695000045,868.8566695000045,x,1,0.7197135000023991,None,604757,001,2023-10-09_14h53.34.698,Sequential Learning,2023.1.3,59.92139517100053,
